time_ms,left_accel_x,left_accel_y,left_accel_z,left_gyro_x,left_gyro_y,left_gyro_z,right_accel_x,right_accel_y,right_accel_z,right_gyro_x,right_gyro_y,right_gyro_z
28,-9.72,0.65,0.71,-2.875,1.0,0.4375,-9.75,-0.05,1.23,-2.9375,-0.9375,0.625
134,-9.68,0.52,0.8,-2.4375,1.375,0.0625,-9.63,-0.03,1.39,-2.375,-2.75,1.1875
227,-9.6,0.26,0.64,-4.3125,1.625,0.9375,-9.77,-0.18,1.23,-7.75,-4.75,2.0
332,-9.65,0.8,0.46,-2.25,0.4375,0.4375,-9.67,0.3,1.46,2.5625,4.6875,-1.0625
431,-9.69,0.61,0.55,6.4375,0.8125,0.1875,-9.84,-0.08,1.49,5.8125,2.5,-1.1875
532,-9.54,0.26,0.5,0.8125,2.5625,1.875,-9.47,-0.36,0.94,-2.125,0.0,-0.5
630,-9.63,0.4,0.61,-16.125,4.625,1.5625,-10.02,-0.08,0.95,-8.875,1.0,0.25
729,-9.66,0.62,0.32,-3.6875,0.3125,0.0625,-9.62,-0.2,1.34,-8.25,-1.625,1.0625
827,-9.74,0.76,0.49,-2.75,1.0625,-0.25,-9.78,0.19,1.29,-1.25,0.625,-1.0
930,-9.72,0.57,0.44,3.0,-1.375,-0.75,-9.79,-0.2,1.45,5.125,0.5,0.125
1032,-9.72,0.56,0.72,-0.0625,1.75,0.3125,-9.74,0.05,1.37,2.6875,2.125,-1.3125
1130,-9.7,0.89,0.62,4.0625,-0.4375,-1.3125,-9.74,-0.03,1.42,4.8125,1.25,-1.125
1231,-9.69,0.28,0.31,3.1875,0.1875,-0.5625,-9.86,-0.46,0.78,0.75,-3.0625,0.5
1329,-9.73,0.54,0.3,-2.0625,-0.125,-0.0625,-9.73,0.02,1.0,1.5,1.625,0.1875
1429,-9.73,0.61,0.52,-2.5625,-0.9375,0.125,-9.72,-0.23,1.09,-3.625,-2.25,0.5
1529,-9.67,0.56,0.65,-8.1875,-1.125,0.25,-9.67,-0.03,1.25,-4.0625,-0.625,1.5625
1633,-9.71,0.65,0.41,-2.25,-0.625,0.1875,-9.7,0.17,1.58,-2.3125,-1.6875,0.1875
1729,-9.69,0.7,0.48,7.125,-2.8125,-1.375,-9.73,0.04,1.26,5.1875,-3.25,-0.375
1828,-9.78,0.63,0.52,3.125,-1.1875,-1.0,-9.83,-0.08,1.07,2.0625,-0.75,-1.0
1930,-9.66,0.35,0.8,2.25,-0.5625,-1.0,-9.82,-0.24,1.57,6.125,0.0,-0.1875
2029,-9.69,0.59,0.57,7.0625,-0.875,-0.8125,-9.69,0.14,1.48,5.25,-0.25,-0.875
2130,-9.71,0.34,0.65,3.0625,1.5,0.125,-9.72,-0.37,1.24,4.0625,-0.8125,-0.625
2233,-9.74,0.56,0.52,-3.875,0.8125,-0.3125,-9.78,-0.05,1.15,-2.9375,1.5625,-0.0625
2330,-9.69,0.53,0.42,-0.3125,0.4375,0.25,-9.68,-0.11,1.43,1.0625,1.0625,-0.875
2429,-9.68,0.52,0.57,4.0625,-0.25,0.0625,-9.73,-0.06,1.17,2.0,1.0,-0.8125
2532,-9.71,0.52,0.5,-0.5,0.6875,0.375,-9.75,-0.18,1.16,-0.875,0.5,-0.3125
2629,-9.69,0.56,0.59,-0.25,0.125,0.0625,-9.64,-0.03,1.26,-0.1875,0.875,-0.5625
2728,-9.67,0.51,0.6,0.5,0.25,0.0625,-9.74,-0.19,1.24,0.1875,-0.25,-0.1875
2829,-9.74,0.54,0.5,-0.75,0.8125,0.0625,-9.75,-0.13,1.15,-0.875,0.6875,-0.125
2932,-9.69,0.59,0.44,-0.1875,0.3125,-0.3125,-9.72,-0.11,1.25,-0.5,0.6875,-0.3125
3031,-9.71,0.61,0.5,-0.5625,0.4375,-0.4375,-9.92,0.06,1.15,2.75,2.1875,-0.6875
3128,-9.57,0.4,0.85,4.4375,-0.1875,0.4375,-9.63,-0.35,1.56,8.625,2.1875,-0.625
3227,-9.84,0.56,0.9,0.8125,-4.0625,-0.1875,-9.98,-0.4,1.06,-7.6875,-6.125,-0.625
3331,-9.71,0.54,1.05,-9.375,-0.0625,-0.3125,-9.61,-0.26,1.19,-14.0625,-2.125,0.6875
3427,-9.68,0.69,0.91,-13.875,-5.125,-1.125,-9.52,0.03,1.67,-15.0625,-9.25,2.9375
3530,-9.86,0.22,0.71,-11.875,-5.75,-0.125,-9.86,-0.46,1.66,-18.0,-16.25,4.4375
3631,-9.7,0.84,0.42,-1.6875,-1.9375,-1.5625,-9.37,0.57,2.09,3.8125,-4.5,-0.1875
3728,-9.69,0.62,0.79,9.8125,1.875,-1.375,-9.51,-0.11,2.05,12.6875,-8.5,-2.75
3830,-10.02,1.04,-0.2,17.4375,19.3125,5.9375,-9.3,-0.36,1.81,8.4375,-9.5625,-0.125
3929,-10.84,0.51,-0.45,-8.5,60.9375,17.4375,-9.33,-0.27,1.87,-0.25,-11.625,-0.3125
4031,-10.38,0.15,-1.98,12.875,101.9375,12.875,-10.02,-0.38,1.95,-28.25,-17.8125,2.125
4133,-9.45,0.42,-1.64,64.25,58.8125,14.1875,-9.45,-0.35,2.63,17.6875,-2.875,1.0
4232,-7.82,0.62,-2.29,12.375,22.75,3.375,-9.36,0.31,2.6,-7.875,-15.9375,0.0
4330,-8.59,1.16,-3.31,2.5625,-5.0625,1.1875,-9.81,-0.34,2.58,-0.3125,-8.4375,3.4375
4432,-9.51,1.93,-4.48,0.9375,4.1875,1.6875,-9.31,0.02,2.89,7.1875,-10.0625,1.5625
4527,-8.56,0.55,-4.3,31.25,35.375,4.1875,-9.44,0.16,3.19,6.0,-8.25,-2.1875
4630,-7.73,1.0,-3.36,8.9375,3.375,1.5,-9.16,-0.18,2.98,16.5,-7.0625,0.375
4726,-8.53,0.35,-3.62,-0.25,-22.1875,4.625,-9.16,-0.06,3.35,1.6875,-14.625,2.8125
4828,-8.76,0.93,-3.69,-12.875,-42.6875,2.4375,-9.41,0.34,3.64,0.0,-14.9375,5.625
4927,-10.88,1.13,-4.83,-1.5625,-35.25,2.3125,-9.19,0.34,3.89,11.8125,-7.5,-0.0625
5029,-8.03,-0.48,-3.72,-13.625,-21.25,1.75,-9.73,-0.56,2.28,33.375,-12.125,3.875
5133,-9.08,0.04,-3.35,-3.625,5.9375,18.1875,-10.23,-0.42,2.08,9.9375,8.4375,0.5
5232,-9.85,2.0,-2.61,-46.6875,-24.125,6.4375,-10.04,1.5,2.21,12.1875,32.1875,-2.6875
5331,-9.94,2.57,-0.13,-23.8125,-43.5625,0.5,-10.44,-0.09,1.82,12.625,122.375,-8.4375
5429,-9.75,0.5,-0.25,-5.6875,-34.0,-6.0625,-10.8,0.72,2.37,-10.875,121.9375,-34.8125
5534,-9.3,1.65,0.4,-56.9375,-20.5625,1.875,-8.94,-1.03,1.0,-81.25,86.25,-35.75
5632,-9.64,1.01,-0.72,-38.75,-18.625,-0.875,-7.67,1.98,-1.95,-65.1875,22.6875,-21.4375
5730,-9.56,2.44,0.22,-40.375,-12.5,-2.5,-9.32,-1.11,-1.36,-8.125,3.4375,-7.0625
5828,-9.27,1.36,0.24,-14.6875,-18.9375,1.9375,-9.73,-0.12,-2.23,-17.625,-28.875,-3.25
5931,-9.31,1.75,0.33,-15.1875,-19.5,-1.0625,-9.52,-0.22,-2.59,-5.375,-15.375,0.3125
6031,-9.23,1.99,0.76,-19.25,-24.4375,-6.1875,-9.26,-0.06,-2.07,-2.5,-14.25,1.6875
6132,-9.44,1.95,1.58,-16.9375,-26.0,-0.5625,-10.68,-1.34,-1.52,-7.125,-47.6875,-5.625
6232,-10.79,1.93,0.28,-26.5,9.4375,1.75,-7.91,0.47,1.59,-33.75,-30.5,-5.3125
6336,-11.06,-1.03,-1.66,10.5625,117.0625,-13.75,-9.24,-1.78,0.49,29.0,-21.3125,-6.25
6437,-11.9,4.79,1.36,10.5625,118.8125,17.1875,-10.79,-1.67,0.02,-25.5,-35.125,-4.5
6538,-9.34,-1.01,-1.57,85.25,61.1875,26.625,-9.12,-0.87,1.28,44.375,-14.5625,-12.875
6637,-7.34,0.75,-1.47,61.5625,32.5625,22.5,-9.36,-1.32,1.99,-2.375,-28.875,0.9375
6736,-7.45,-0.07,-3.1,-8.4375,-9.375,1.4375,-9.93,-0.29,1.64,17.8125,-24.0625,3.5
6837,-7.91,2.19,-3.99,-8.4375,-44.25,-24.6875,-9.81,-1.07,1.18,8.8125,-25.5,-2.3125
6932,-10.09,0.79,-5.93,-33.1875,-14.375,8.9375,-9.58,-0.92,1.99,63.125,-2.25,-4.0625
7037,-8.94,-0.4,-0.52,-3.875,-59.1875,-2.375,-10.38,-1.47,1.4,42.75,-2.4375,-0.8125
7133,-8.05,-1.44,1.04,-80.75,-32.625,21.1875,-11.0,-0.22,0.49,-4.375,59.0,-7.0625
7235,-9.38,4.32,0.63,-29.875,-35.1875,-4.9375,-10.52,1.89,0.33,12.5625,142.0,24.375
7332,-10.26,0.66,-0.02,-39.625,-26.5625,3.875,-11.04,-2.56,1.7,-28.1875,103.0625,-21.3125
7437,-9.23,2.08,0.6,-21.375,-20.5625,12.6875,-8.22,-0.6,-1.32,-115.9375,39.25,-37.125
7537,-9.38,1.26,0.21,-14.3125,-32.5,-6.8125,-5.97,2.21,-0.67,-37.6875,-0.3125,-18.8125
7632,-9.32,1.92,0.34,-7.125,-38.25,-11.75,-8.96,-2.9,-3.91,94.5,-35.5,8.9375
7728,-9.12,2.24,0.35,-19.9375,-33.75,-2.875,-12.43,-0.22,-6.41,-27.4375,-28.6875,-7.875
7832,-12.59,2.88,0.38,-66.8125,-10.25,6.75,-9.73,1.89,0.83,-61.1875,-58.8125,8.6875
7930,-12.52,-0.15,-0.65,-30.1875,126.625,9.5,-5.29,0.37,1.53,39.75,-18.5625,-45.4375
8033,-13.0,2.07,1.07,-25.8125,150.9375,42.3125,-10.49,-4.36,-1.44,-9.0625,-23.0625,-10.625
8129,-9.49,0.01,-0.83,166.5,98.5625,29.0625,-9.36,-1.95,-0.31,56.4375,-22.6875,-12.9375
8230,-5.28,-0.41,-0.71,81.625,38.1875,15.9375,-8.56,-0.86,1.8,19.25,-34.75,-7.125
8330,-5.11,-0.68,-3.43,-30.5625,-44.0,2.125,-9.61,-0.94,1.02,17.9375,-47.25,4.0
8432,-13.27,2.24,-9.58,42.5625,-65.8125,-11.875,-9.81,-2.43,1.6,49.6875,-19.4375,1.25
8531,-13.41,-2.27,-3.2,35.375,-25.75,-17.9375,-12.81,-3.7,-0.15,44.6875,5.1875,3.0625
8632,-6.55,-5.88,6.24,-91.5625,-49.0625,18.5625,-11.35,2.82,-1.3,-25.375,150.4375,13.125
8729,-8.52,0.43,-0.44,-7.125,-81.5,-6.9375,-13.35,-3.85,2.1,-21.6875,136.625,-42.5625
8832,-8.35,2.63,0.09,-95.1875,-74.0,-0.4375,-8.32,0.33,0.25,-118.5625,94.125,-23.125
8930,-9.66,2.35,-0.56,-23.8125,-49.4375,-7.625,-5.46,1.28,1.33,-58.75,24.5,3.5
9029,-8.85,1.49,-0.33,13.4375,-56.1875,-10.75,-8.26,-0.56,-5.22,106.4375,-88.6875,3.6875
9127,-9.82,2.9,1.41,-32.5,-30.5,4.4375,-12.07,0.46,-7.3,47.625,4.0,-27.4375
9226,-14.17,0.58,-1.53,-74.625,41.3125,11.75,-14.71,-4.03,4.72,-122.4375,-116.1875,3.0625
9328,-15.05,2.27,1.32,23.5625,186.5625,51.625,-5.32,0.7,8.44,-20.75,-108.4375,-6.5625
9431,-9.75,1.57,1.42,142.1875,144.5625,32.125,-9.41,1.35,1.36,105.9375,-44.375,-44.6875
9531,-6.18,-0.06,-0.57,92.75,73.625,23.75,-8.83,-2.49,2.6,115.4375,-31.5,-9.1875
9631,-4.19,-1.66,-0.92,19.6875,-20.9375,-3.5625,-9.37,-0.95,1.5,19.9375,-54.5,2.9375
9727,-10.01,2.46,-8.62,-71.4375,-126.375,-48.1875,-9.9,-2.22,0.66,43.5625,-43.75,5.0625
9830,-8.9,-3.26,-4.04,43.3125,15.5625,19.0625,-13.16,-1.98,0.2,24.375,-5.0,-7.1875
9928,-6.25,-4.0,1.35,-58.9375,8.8125,51.625,-10.95,1.78,-1.48,0.0625,132.9375,13.75
10031,-8.15,2.19,1.25,-0.3125,-60.3125,-13.5,-14.3,-3.42,2.45,37.5625,148.625,-47.0
10132,-9.22,0.48,0.23,-74.625,-91.375,7.4375,-9.37,-1.1,0.07,-139.8125,108.9375,-23.8125
10232,-9.17,1.89,0.27,-55.25,-73.9375,-9.375,-4.98,0.79,1.29,-75.6875,29.0,3.5
10327,-9.73,1.49,-0.45,-15.4375,-61.25,-11.125,-5.67,-1.07,-3.3,89.875,-62.25,-3.5625
10428,-9.81,3.38,1.25,-67.8125,-23.0,3.0,-15.17,-0.46,-8.09,-15.5,-65.5,-1.625
10527,-12.19,1.8,-2.23,-41.0,26.75,8.625,-10.21,-0.76,4.54,-96.625,-77.9375,-13.9375
10629,-15.51,1.9,2.08,-9.3125,198.25,33.6875,-5.58,-3.42,8.39,19.125,-33.875,4.5625
10728,-10.7,2.93,1.76,145.8125,140.8125,42.6875,-10.21,1.67,-0.3,57.0,-39.8125,-33.0
10829,-5.5,-0.04,-1.3,96.75,79.25,21.6875,-8.86,-3.57,2.77,113.125,-30.5625,-2.0625
10928,-5.11,-1.5,-0.07,40.6875,-14.625,6.5625,-9.69,-0.31,1.24,-6.375,-66.375,7.4375
11031,-11.2,3.08,-6.83,-25.5,-92.5,-50.8125,-9.43,-2.24,1.08,45.9375,-33.0625,7.8125
11130,-7.2,-1.28,-6.52,-13.75,-32.625,12.8125,-11.09,0.75,0.7,46.9375,-2.9375,-5.625
11228,-15.6,5.21,-5.45,148.4375,-8.5625,30.125,-13.28,-1.23,0.61,-8.25,91.1875,5.5625
11331,-14.15,7.65,0.91,-36.8125,-68.4375,-5.625,-13.46,-2.45,3.76,67.0625,154.6875,-39.1875
11430,-9.46,0.94,0.94,-61.25,-103.5,13.4375,-10.37,-0.7,1.1,-121.6875,109.9375,-23.6875
11528,-8.96,1.78,1.11,-64.8125,-88.5,-18.6875,-4.56,-0.2,1.17,-110.5625,59.8125,-14.375
11629,-9.64,1.48,-0.88,-14.8125,-54.5625,-10.6875,-5.55,0.6,-2.19,71.6875,-46.5,-14.5625
11730,-9.48,3.01,1.43,-56.5,-35.0625,-0.5,-15.62,-2.06,-8.0,-37.5625,-91.1875,9.1875
11827,-11.97,1.25,-1.53,-37.1875,14.25,16.6875,-7.53,1.38,0.57,-124.0625,-48.0625,-7.75
11930,-13.5,0.33,1.14,4.0625,186.5,15.125,-7.16,-0.54,6.05,12.5625,-58.5,-7.9375
12029,-11.29,2.24,1.55,106.375,158.875,48.9375,-10.32,-0.8,0.05,46.25,-42.3125,-31.5
12132,-6.5,0.52,-0.5,95.0625,101.3125,28.625,-8.73,-1.0,1.01,91.75,-31.3125,-4.625
12227,-4.25,-0.68,0.17,44.5,-7.4375,0.9375,-9.09,-0.84,1.34,-13.25,-60.375,3.5
12331,-10.52,2.42,-8.36,-69.125,-128.3125,-49.5625,-10.39,-2.26,0.04,51.0,-45.9375,6.6875
12427,-8.06,-3.32,-4.39,-24.75,25.4375,31.1875,-13.89,-1.61,0.18,24.9375,-2.5625,-9.4375
12531,-6.08,-4.62,2.97,-56.9375,-13.4375,40.3125,-11.08,3.01,-0.93,-9.125,141.875,13.8125
12631,-9.39,3.36,1.19,-4.5625,-72.0,-10.0625,-14.31,-3.76,3.21,24.1875,142.6875,-62.125
12733,-9.04,-0.51,0.03,-84.125,-99.0,-1.5,-8.65,0.13,0.68,-138.3125,111.125,-30.9375
12830,-9.22,1.65,0.24,-56.6875,-52.4375,-14.875,-4.5,0.93,1.51,-68.625,7.5625,11.4375
12931,-9.53,0.08,-0.82,-1.5625,-60.125,-9.3125,-10.28,-0.95,-6.44,131.4375,-98.875,5.125
13028,-10.15,2.53,1.28,-20.0625,-26.6875,4.875,-12.24,-2.2,-5.16,17.8125,-20.125,-20.0625
13133,-13.53,1.67,-1.31,-56.375,40.25,7.5,-14.1,-1.89,4.13,-68.1875,-98.4375,9.9375
13225,-14.83,-0.38,1.48,37.0625,194.4375,37.3125,-5.61,-2.14,7.09,3.25,-69.6875,0.125
13333,-10.38,2.45,1.7,124.0,144.125,41.1875,-9.52,1.76,0.33,68.25,-38.5625,-33.1875
13430,-5.17,-0.27,-1.33,92.6875,78.8125,23.25,-9.11,-3.06,1.96,96.5625,-34.9375,1.75
13529,-4.9,-1.37,-1.12,-4.1875,-16.875,11.375,-9.45,0.03,1.05,-8.9375,-59.6875,6.8125
13632,-12.77,5.15,-7.09,6.5625,-107.0,-73.375,-10.05,-2.96,0.61,26.1875,-47.625,7.125
13728,-8.97,-1.12,-3.58,40.4375,28.4375,35.4375,-12.12,-1.39,-0.61,33.6875,-7.0,-4.625
13832,-11.4,0.66,1.86,-34.3125,2.0625,11.875,-11.52,2.26,-1.15,-19.6875,143.1875,21.1875
13930,-9.31,1.97,1.19,-9.5625,-70.1875,-11.1875,-13.7,-3.66,2.35,1.1875,144.75,-61.6875
14033,-8.98,0.51,0.18,-90.375,-102.0,1.6875,-8.1,-0.15,0.03,-127.25,106.75,-18.75
14129,-9.5,3.02,-0.19,-63.1875,-71.6875,-18.8125,-4.56,0.51,1.85,-81.3125,24.8125,6.0
14230,-8.69,0.15,0.12,-25.9375,-49.0,-7.0,-8.34,-0.01,-4.82,109.375,-66.375,-3.8125
14328,-10.42,2.06,1.61,-27.875,-30.125,4.625,-13.88,-0.71,-7.26,-8.875,-53.125,-19.75
14431,-13.78,1.9,-1.23,-47.0,48.625,10.25,-14.8,-1.04,2.44,-73.25,-101.3125,-7.9375
14527,-13.83,2.59,3.25,-6.0,202.25,33.75,-6.05,-2.51,7.02,-11.0625,-60.5,-5.375
14633,-10.31,1.56,1.64,154.125,145.5625,43.0625,-9.62,1.11,0.65,74.375,-44.4375,-43.0625
14727,-5.18,-0.36,-0.85,90.125,87.75,27.75,-9.11,-3.22,1.96,90.5625,-34.75,-4.0625
14830,-4.74,-2.04,-1.26,4.3125,-29.625,5.75,-9.31,-0.24,1.24,26.375,-53.125,2.0
14928,-15.17,4.26,-8.47,6.25,-87.3125,-35.625,-9.82,-3.38,2.72,43.4375,-47.8125,8.5
15032,-12.74,-3.67,-3.49,54.5625,-9.0,17.5,-13.75,-3.12,0.09,60.9375,-12.9375,-2.6875
15130,-11.41,-1.16,3.25,-22.25,-31.5625,4.9375,-11.7,3.67,-0.39,-15.5625,153.0,16.25
15230,-9.63,1.78,0.21,4.25,-76.3125,-16.9375,-13.55,-4.07,2.84,-76.375,150.625,-48.375
15329,-8.76,-0.22,0.22,-80.4375,-104.875,-4.3125,-8.77,0.11,0.04,-95.0625,118.625,-12.75
15431,-9.47,2.67,-0.65,-87.125,-72.8125,-16.0,-4.44,-0.29,1.94,-60.3125,19.25,11.0
15529,-8.8,1.53,0.31,1.3125,-49.6875,-5.125,-8.09,-0.89,-4.35,94.3125,-74.875,12.375
15632,-9.4,2.39,1.37,-40.75,-26.625,3.875,-15.5,-2.66,-8.33,40.75,-25.1875,-14.875
15727,-13.8,2.01,-1.68,-48.1875,18.4375,14.25,-13.55,-1.37,4.74,-105.3125,-117.3125,-15.25
15837,-15.09,1.05,2.23,33.625,187.5625,18.3125,-5.62,-2.1,6.16,20.125,-40.625,-8.4375
15932,-10.9,1.82,1.49,89.5625,150.5625,46.4375,-10.32,0.08,0.81,54.0625,-59.625,-31.6875
16037,-5.3,0.22,-0.37,100.5,101.0625,36.4375,-9.14,-1.72,1.24,99.625,-28.8125,-6.25
16139,-4.24,-1.77,-0.19,25.5625,-16.3125,1.375,-9.54,-1.12,1.55,-9.4375,-53.625,2.5625
16236,-14.39,5.63,-10.83,-69.5,-132.8125,-50.9375,-9.95,-2.53,0.38,50.1875,-47.25,10.0625
16332,-6.01,-1.59,-3.54,-1.625,34.0,30.375,-12.2,-1.28,-0.08,29.25,-3.9375,-11.125
16438,-5.37,-5.22,1.19,-74.3125,35.375,44.0625,-10.59,3.13,-1.04,-12.0625,134.0,19.3125
16538,-8.64,0.86,0.28,2.0,-66.875,-13.3125,-14.28,-3.87,2.76,19.5625,145.75,-42.5625
16632,-8.52,1.84,0.35,-74.125,-103.5625,-3.3125,-9.36,0.23,0.19,-105.625,100.625,-19.125
16738,-9.4,1.22,-0.04,-63.5625,-76.4375,-10.9375,-5.1,0.34,1.77,-69.1875,29.875,13.75
16831,-8.34,0.34,0.65,-9.9375,-50.4375,-5.0,-8.51,0.3,-5.33,89.1875,-89.1875,-0.375
16939,-10.21,2.98,1.52,-48.1875,-35.3125,-4.1875,-14.76,-1.97,-7.41,-12.5,-40.5625,-17.6875
17038,-14.44,0.62,-0.47,-61.75,25.3125,14.25,-16.35,-2.58,3.8,-98.5625,-100.875,-3.5625
17138,-13.77,1.76,2.58,13.625,190.75,36.375,-5.63,-1.7,6.18,7.875,-72.125,-5.3125
17232,-10.44,1.9,1.93,128.625,155.0,46.5625,-9.35,1.31,1.06,74.625,-39.5,-38.9375
17329,-5.19,-0.87,-0.8,105.1875,96.3125,21.875,-9.15,-2.62,2.09,98.6875,-34.4375,-5.1875
17427,-4.52,-1.38,-0.91,13.625,-15.3125,-0.875,-9.27,-0.99,1.81,8.375,-60.8125,6.0
17531,-13.06,5.24,-8.25,34.3125,-115.6875,-42.625,-10.51,-2.28,0.46,53.75,-34.3125,8.5
17629,-10.46,-2.71,-3.44,42.875,-9.4375,10.6875,-12.68,-2.02,0.02,37.25,10.0625,-4.3125
17727,-3.08,-7.0,6.26,-149.6875,-29.0625,22.5,-11.63,2.54,-1.34,-4.6875,142.0625,21.0625
17830,-9.06,2.44,0.59,20.0,-74.625,-5.1875,-13.61,-3.49,2.05,42.75,138.625,-47.0625
17928,-8.8,0.17,-0.57,-63.8125,-91.0,-7.1875,-8.48,0.22,0.07,-113.5625,99.4375,-24.9375
18026,-9.36,2.05,0.1,-48.75,-56.625,-14.75,-4.67,0.31,1.1,-81.0,30.0,-0.9375
18131,-9.34,1.46,-0.89,-20.9375,-49.75,-4.625,-8.12,0.14,-4.33,52.875,-92.875,-7.0625
18229,-9.52,3.28,1.73,-47.4375,-20.75,4.75,-13.77,-0.04,-6.61,-25.6875,-35.125,-26.25
18331,-14.42,0.89,-0.95,-65.8125,116.5,5.375,-17.72,-1.76,-0.07,-68.8125,-116.875,16.9375
18429,-13.76,2.39,2.23,32.0,162.9375,68.25,-10.51,-3.06,5.47,35.75,-90.25,4.5625
18531,-10.01,0.3,0.72,180.125,132.625,26.875,-8.35,2.09,0.45,63.4375,-29.3125,-34.125
18630,-4.61,-0.24,-0.29,49.625,63.375,5.625,-8.96,-3.23,2.23,81.5625,-41.625,-3.625
18730,-3.76,-1.92,-2.23,-27.875,-75.0,-4.875,-9.75,0.07,0.92,7.625,-57.0,5.1875
18828,-22.47,5.73,-12.12,65.9375,-99.625,-17.6875,-10.97,-4.21,1.0,81.0625,-26.0,7.5
18931,-13.77,1.17,0.19,28.5,-90.9375,6.875,-12.53,0.33,-0.97,41.375,52.6875,-7.75
19030,-9.85,0.95,2.13,13.8125,-58.0,-18.375,-14.01,-2.25,3.61,29.1875,205.0625,3.75
19131,-8.87,-1.67,-0.32,-6.5,-94.1875,3.5625,-10.77,-0.22,1.66,-149.4375,113.5625,-42.875
19228,-9.08,0.95,0.07,-96.75,-71.125,-1.875,-4.34,0.2,-0.23,-74.25,66.6875,-9.4375
19331,-8.68,2.01,0.27,-20.0625,-52.3125,-8.8125,-5.01,1.18,0.25,12.8125,-58.5,-8.875
19426,-9.06,2.0,-0.15,-17.3125,-65.5,-8.375,-12.19,-3.41,-5.8,-45.1875,-94.8125,30.1875
19530,-13.23,0.42,0.97,-37.3125,-9.1875,17.75,-7.65,-1.09,-1.81,-45.375,-23.0,9.0625
19628,-12.95,0.0,-1.71,-4.4375,151.75,19.125,-7.68,-0.2,5.26,53.1875,-50.875,-32.0
19731,-12.87,2.85,0.66,-10.125,168.5,48.125,-10.95,-3.93,-0.54,27.6875,-45.3125,-4.9375
19830,-8.69,0.45,-0.49,143.5625,118.4375,24.8125,-9.05,-0.78,-0.57,53.9375,-27.9375,-6.75
19928,-4.58,0.27,-0.26,40.875,40.3125,1.75,-8.74,-1.7,2.11,14.25,-42.6875,-4.5
20031,-4.59,-0.87,-3.62,-60.9375,-110.1875,-24.625,-9.52,0.21,0.83,27.5,-60.8125,4.9375
20131,-12.53,3.28,-4.9,39.625,35.5,43.3125,-11.24,-3.54,2.08,40.75,-18.6875,8.0625
20229,-13.28,1.84,-3.27,92.375,-27.8125,9.0625,-13.17,0.02,-1.36,23.4375,73.125,-3.6875
20328,-8.49,2.9,-0.68,14.9375,-77.75,9.25,-14.0,-4.22,5.03,66.9375,170.1875,-36.0
20431,-8.6,0.55,0.68,-47.0,-88.375,4.25,-11.52,-0.1,0.58,-148.75,115.8125,-24.0
20529,-8.81,0.5,0.26,-68.5625,-77.0,-10.1875,-4.75,0.3,0.58,-65.125,88.75,-2.6875
20633,-9.36,1.33,-0.6,-21.0625,-53.125,-11.375,-4.6,0.87,-1.14,46.375,-27.875,-5.1875
20728,-9.59,2.9,0.19,-35.9375,-38.8125,-7.625,-11.98,-2.31,-5.45,-35.0,-142.875,29.6875
20833,-13.4,1.16,-0.29,-15.1875,-16.25,2.0625,-4.9,5.19,-3.23,-112.5,-23.6875,-3.875
20929,-10.9,0.2,-0.87,-24.0,166.625,12.8125,-8.43,-2.64,7.22,8.4375,-31.0,-6.375
21032,-12.52,2.23,0.94,57.125,155.875,67.4375,-9.84,-1.77,0.57,4.25,-44.375,-13.625
21129,-8.88,1.54,-0.25,145.0625,120.875,62.8125,-8.84,-1.7,0.48,106.75,-25.0625,-10.5
21233,-4.15,-1.7,0.47,54.0,16.3125,12.1875,-8.66,-0.52,0.95,15.25,-49.125,-0.375
21330,-8.74,2.93,-5.7,-36.6875,-119.875,-62.375,-10.16,-1.01,-0.79,29.5,-55.6875,8.25
21428,-6.94,1.59,-4.12,0.4375,0.0,33.125,-10.77,-0.61,1.22,35.125,3.4375,-12.75
21530,-8.2,-0.74,-1.82,78.8125,1.25,52.625,-12.59,-0.1,-1.35,9.9375,105.0,11.6875
21632,-10.76,5.39,1.01,-63.625,-64.0,-6.0625,-14.44,-4.21,3.48,90.0625,140.9375,-40.9375
21728,-9.01,-0.65,-0.45,-60.0,-101.25,9.625,-10.75,0.66,0.83,-176.4375,89.75,-21.0
21830,-8.84,3.28,0.83,-76.875,-84.9375,-17.9375,-4.2,0.23,0.83,-79.5625,45.5,-4.5
21932,-9.4,2.42,-0.45,-19.5,-62.0,-18.125,-5.6,2.0,-1.66,74.25,-43.5625,-17.5625
22031,-8.8,3.5,1.49,-21.625,-46.375,-4.9375,-14.85,-2.55,-6.8,-98.6875,-92.3125,7.3125
22133,-12.69,2.15,-0.44,-51.5625,-15.6875,4.0625,-6.88,3.17,0.26,-63.25,-36.375,-4.0625
22228,-11.64,-0.89,-0.73,-19.125,159.5,6.875,-7.08,-0.63,4.32,57.0625,-34.375,-26.25
22331,-12.9,2.73,1.37,46.9375,168.6875,55.4375,-10.42,-3.15,-1.21,-19.8125,-38.1875,-2.875
22430,-8.98,0.51,-0.34,134.625,129.875,32.0625,-8.9,-0.63,-0.51,50.875,-31.375,-12.875
22530,-4.23,-0.14,-0.04,49.875,41.75,5.375,-8.55,-1.78,1.51,12.3125,-46.8125,-1.625
22630,-4.56,0.21,-4.25,-29.875,-92.625,-16.375,-10.19,0.0,0.47,22.4375,-77.25,7.6875
22732,-12.19,3.87,-7.96,36.75,-24.8125,27.5,-10.43,-2.53,3.18,49.25,-25.3125,-5.1875
22829,-14.91,2.44,-2.42,76.375,-28.9375,21.125,-14.13,-2.78,-0.9,41.4375,40.0,-13.25
22928,-10.37,7.71,-0.19,-16.875,-44.6875,3.0,-13.12,-1.28,2.88,8.875,206.5,12.875
23028,-9.03,1.79,0.57,-73.375,-86.6875,-0.125,-10.21,-0.67,2.46,-110.5625,142.625,-32.4375
23133,-9.05,0.79,0.85,-49.875,-81.625,-9.375,-4.88,-0.27,-0.47,-70.25,64.875,-25.6875
23225,-9.11,2.3,0.68,-30.75,-55.75,-19.8125,-4.02,0.37,1.79,-39.125,-14.0625,-1.1875
23329,-10.03,2.67,0.24,-16.25,-56.8125,-9.8125,-14.38,-2.33,-7.92,-7.1875,-71.625,18.8125
23431,-12.39,1.43,0.71,-36.375,-33.4375,7.875,-7.52,1.43,-0.71,-53.4375,-37.4375,-8.4375
23529,-12.64,-1.03,-0.57,-47.125,107.9375,8.0,-10.68,-1.36,-2.2,43.0,-56.5,-15.6875
23626,-14.44,3.58,1.84,7.8125,168.9375,62.25,-11.74,-5.89,-0.09,14.1875,-51.9375,14.1875
23728,-11.21,0.45,-0.06,164.0625,137.25,31.125,-9.33,0.53,-0.58,24.5,-33.8125,-10.4375
23831,-4.08,-0.37,1.08,77.25,96.25,16.75,-8.85,-2.28,1.59,32.625,-41.125,-3.375
23931,-3.97,-0.88,-3.03,-5.9375,-19.25,-5.25,-8.34,0.79,1.98,6.9375,-72.0625,4.5
24031,-15.39,2.65,-10.39,34.3125,-57.875,-6.4375,-10.65,-2.8,1.62,54.0625,-37.5625,-1.625
24127,-10.52,-2.85,-4.81,44.75,-46.1875,-2.0625,-13.09,-0.75,-0.19,34.375,-16.0,-2.3125
24228,-7.75,-0.77,2.32,-110.75,-39.75,10.0625,-10.61,2.77,-0.45,-0.6875,123.6875,-12.0
24331,-9.87,0.0,-0.68,12.4375,-78.6875,-3.8125,-13.68,-2.55,3.51,22.375,167.75,-53.625
24429,-8.67,1.22,-0.38,-54.5625,-76.375,1.4375,-9.06,-0.84,0.26,-141.125,119.9375,-26.25
24528,-9.06,3.0,-1.04,-103.5,-60.125,-1.5625,-5.17,0.53,0.96,-119.125,46.8125,-4.9375
24627,-8.98,0.1,0.56,8.5,-56.4375,-9.5,-5.56,1.04,-2.89,92.5,-37.4375,-1.875
24730,-9.49,2.43,0.77,-47.5,-56.8125,-3.6875,-13.25,-1.02,-9.11,-26.75,-74.4375,4.4375
24828,-12.25,2.09,0.37,-64.5625,-5.5625,7.8125,-8.91,-1.63,2.97,-130.75,-46.8125,-14.8125
24931,-10.64,-2.36,-1.82,-12.5625,169.25,5.125,-4.38,0.41,7.24,3.5,-39.625,-16.1875
25029,-12.67,4.67,2.45,101.25,170.75,59.0,-9.58,-1.23,3.23,41.0625,-71.875,-26.5625
25133,-9.65,-0.92,-0.65,122.0,135.3125,34.4375,-8.62,-0.24,0.41,96.5,-21.0,-18.4375
25231,-4.05,0.69,-0.63,30.5625,44.75,16.125,-8.51,-1.89,1.93,39.1875,-45.6875,-2.3125
25329,-3.95,-0.51,-4.2,8.125,-89.1875,-21.5,-9.58,-0.25,0.68,23.5625,-76.5625,10.1875
25437,-13.02,2.41,-8.72,23.0,-8.75,6.125,-11.53,-3.13,2.76,68.0625,-34.625,2.6875
25537,-11.88,4.56,-1.52,19.375,-33.5625,27.25,-13.41,-1.83,0.38,38.4375,26.625,-9.375
25637,-8.03,-1.33,1.52,6.4375,-55.0625,-10.6875,-11.04,1.51,2.45,-56.1875,199.5,-4.1875
25736,-9.38,1.14,-1.79,-18.3125,-88.75,2.8125,-11.89,-1.53,2.51,-85.4375,150.875,-19.75
25834,-8.82,1.71,0.81,-53.0,-80.8125,-4.25,-6.35,-0.86,0.51,-80.0625,114.9375,-28.625
25935,-8.47,1.27,0.76,-60.0,-61.0625,-25.4375,-3.42,1.48,1.02,-35.125,0.8125,-9.6875
26033,-9.82,1.52,-1.35,-20.8125,-56.375,-4.4375,-9.44,-1.03,-4.2,14.0,-94.75,31.1875
26132,-12.02,2.16,1.65,-28.75,-25.125,6.3125,-11.39,0.43,-4.0,25.875,-7.1875,-13.375
26233,-12.66,-1.67,-0.79,-41.875,112.3125,6.1875,-7.87,-0.74,1.92,-40.3125,-32.125,3.625
26336,-13.56,3.54,1.76,-5.5,171.75,60.3125,-10.49,-3.53,0.67,-28.625,-68.9375,-1.5
26437,-11.04,1.6,0.68,184.0625,126.625,40.625,-9.23,-0.77,0.23,54.375,-34.1875,-16.5625
26537,-4.94,-0.92,-0.37,63.625,73.9375,26.6875,-9.35,-2.43,1.54,48.4375,-44.625,-4.1875
26637,-3.21,-1.55,-2.38,-11.6875,-48.5625,-4.9375,-9.52,0.25,0.77,1.6875,-68.75,6.1875
26737,-18.93,3.65,-11.95,56.4375,-63.625,-20.1875,-10.03,-2.95,1.25,45.8125,-39.625,4.1875
26837,-8.89,0.47,-3.87,28.875,-18.875,6.0,-11.92,-1.14,0.22,31.375,2.8125,-13.9375
26930,-9.39,-4.26,4.68,-37.8125,-59.5625,-7.625,-11.49,3.53,-0.97,-21.1875,143.875,5.6875
27032,-9.19,1.89,-0.84,5.125,-73.8125,1.4375,-12.41,-3.13,2.45,-46.3125,152.5,-38.6875
27131,-8.26,1.12,0.35,-54.4375,-92.375,-1.3125,-8.27,-0.01,0.11,-110.625,106.875,-32.0
27231,-8.5,0.73,0.33,-66.1875,-81.125,-14.5625,-4.6,0.46,2.63,-61.75,22.4375,-5.1875
27328,-8.91,2.65,0.22,-9.9375,-56.75,-16.625,-6.38,-1.55,-3.59,77.625,-76.4375,21.6875
27430,-9.69,2.15,2.96,-26.125,-43.1875,-2.5,-11.36,-0.57,-5.76,48.875,7.25,-32.4375
27529,-13.84,2.05,-0.37,-78.5625,2.6875,11.8125,-17.48,1.24,-1.94,-128.0,-124.3125,20.3125
27632,-10.6,-1.79,-0.98,11.5,170.125,1.1875,-5.91,-0.56,5.99,30.1875,-70.1875,-13.75
27732,-11.31,3.24,2.09,76.625,160.5625,54.0,-9.56,-0.22,1.16,54.6875,-54.4375,-20.375
27831,-8.93,0.25,-0.22,121.1875,116.4375,44.875,-8.74,-0.93,2.15,81.8125,-40.8125,-8.6875
27932,-4.42,-0.58,-0.35,57.625,43.9375,10.25,-9.13,-0.58,1.71,20.125,-50.5625,-1.25
28031,-4.91,0.38,-4.39,-15.8125,-72.5,-30.5625,-10.01,-1.2,0.02,45.1875,-56.6875,4.625
28129,-9.03,2.35,-6.25,-35.8125,-14.6875,27.3125,-10.98,-1.99,1.6,52.375,-9.0,1.5625
28226,-12.25,1.29,-4.19,87.0625,-42.125,43.3125,-12.54,0.44,-0.77,-6.9375,89.125,0.8125
28329,-10.13,3.33,0.94,-9.25,-73.875,9.0,-14.44,-4.39,4.94,67.4375,171.375,-28.375
28429,-8.93,1.02,0.47,-56.0625,-94.125,4.375,-10.84,-0.58,2.2,-157.375,120.6875,-28.0625
28531,-8.99,1.28,0.29,-75.5625,-73.75,-7.625,-5.58,-0.22,0.5,-79.0,67.875,-20.1875
28625,-9.83,2.53,-0.34,-10.5,-49.875,-10.8125,-5.73,2.26,-1.91,55.875,-29.625,-2.5625
28729,-8.8,2.09,1.7,-7.9375,-52.0,-5.3125,-12.28,-1.95,-6.71,-30.625,-73.8125,-3.875
28825,-11.36,1.62,1.5,-56.5,-20.6875,8.1875,-9.6,2.28,-1.64,-72.3125,-47.1875,4.5625
28929,-12.79,-0.24,-0.31,-44.4375,60.0,0.3125,-9.47,-0.87,-4.29,-10.6875,-52.875,-10.0
29025,-13.28,3.6,2.19,-55.625,166.625,19.625,-11.87,-3.0,0.56,-7.1875,-70.0625,6.9375
29132,-11.19,2.06,0.87,160.6875,128.125,44.4375,-9.79,-1.25,-0.04,46.5,-36.8125,-16.0
29230,-7.21,0.0,-0.38,117.875,100.5,39.1875,-9.28,-1.82,1.81,35.8125,-41.5625,-4.125
29329,-4.45,-0.77,-0.83,20.5,24.5625,16.1875,-9.37,-0.38,1.83,22.1875,-57.9375,5.4375
29428,-9.97,2.4,-7.68,14.375,-89.8125,-36.5625,-9.8,-1.31,1.12,46.5,-47.5625,6.5
29530,-12.7,-0.89,-3.86,-17.8125,-26.1875,25.3125,-13.99,-3.93,1.26,60.8125,-12.75,0.875
29633,-5.58,-5.13,3.18,-50.4375,25.25,49.3125,-10.63,4.39,-0.2,-3.4375,135.1875,6.4375
29729,-9.08,2.33,-0.18,2.125,-74.0,-6.4375,-14.51,-3.66,3.78,18.3125,143.75,-52.3125
29833,-9.44,0.72,0.32,-67.8125,-97.875,8.8125,-9.61,0.19,0.85,-136.6875,116.875,-24.25
29927,-9.25,1.76,-0.33,-86.625,-72.5,-4.75,-5.26,-0.82,1.19,-89.375,43.25,2.375
30030,-9.28,1.07,0.29,-11.25,-64.75,-18.3125,-7.18,0.07,-3.56,85.6875,-20.3125,-7.125
30131,-9.69,0.67,1.49,-16.0625,-40.1875,2.8125,-12.26,-0.66,-6.22,-37.125,-58.125,-9.875
30229,-12.88,3.94,1.19,-63.625,-29.375,-9.375,-11.59,1.99,-0.34,-64.6875,-78.25,10.5625
30327,-10.84,-0.36,-0.27,-53.5,72.625,7.4375,-7.17,-1.21,0.92,36.75,-51.1875,-25.5
30429,-13.5,3.79,1.75,14.0625,173.1875,43.375,-9.82,-4.36,0.82,-18.9375,-62.9375,8.5
30527,-11.81,1.3,0.41,145.875,143.625,42.9375,-9.62,0.2,-1.19,24.9375,-27.9375,-18.625
30630,-6.55,0.96,-0.45,102.625,100.0625,35.3125,-9.16,-3.17,2.1,46.3125,-32.875,-10.6875
30728,-3.98,-2.52,-1.21,43.0625,5.0625,2.1875,-9.58,0.01,1.54,34.125,-55.9375,2.5625
30830,-12.61,3.69,-8.66,28.5,-109.0,-29.25,-11.25,-2.38,1.06,59.0,-41.5625,7.0
30928,-13.37,-2.9,-4.64,-16.875,-35.375,21.0625,-13.27,-3.24,0.42,48.5625,-4.25,1.3125
31027,-4.11,-3.49,3.65,-94.875,-15.0625,29.5625,-10.64,2.06,0.21,-5.9375,159.375,7.9375
31131,-9.02,1.68,0.97,-19.1875,-71.375,6.8125,-11.44,-2.58,2.73,-39.75,141.0625,-54.6875
31227,-9.08,1.51,0.66,-79.4375,-81.25,2.0,-8.74,0.25,0.7,-120.0625,102.125,-26.8125
31331,-9.37,2.15,0.51,-61.0,-60.25,-10.375,-5.68,0.68,1.86,-76.9375,15.4375,-7.875
31430,-8.63,1.78,0.96,-20.0,-49.3125,-8.125,-7.97,-1.94,-2.32,20.125,-34.125,15.6875
31531,-9.18,0.28,2.9,-29.8125,-52.875,-3.125,-12.37,-1.47,-7.24,-1.875,-44.25,-2.1875
31631,-12.99,4.24,0.93,-63.1875,-15.25,0.375,-10.85,1.48,-0.42,-70.125,-74.4375,-3.9375
31731,-10.72,-3.36,-1.21,-33.1875,119.25,-1.25,-5.79,-1.21,3.84,24.875,-53.6875,-23.1875
31827,-12.93,3.93,1.07,31.0,156.125,55.3125,-9.48,-3.76,0.26,28.1875,-51.5,-16.0625
31930,-11.12,-0.07,0.28,155.1875,122.0625,33.6875,-9.46,-1.04,-0.73,68.625,-30.8125,-13.8125
32030,-6.12,0.06,-0.13,63.5,79.6875,23.4375,-8.65,-2.67,1.98,34.0,-39.3125,-2.1875
32132,-3.84,-0.71,-2.94,-11.875,-7.9375,-6.0,-9.31,-0.01,1.93,31.3125,-63.5625,6.5
32233,-14.55,2.73,-9.93,48.25,-65.375,-10.0,-11.42,-1.52,1.86,55.75,-43.5,6.9375
32331,-9.95,-0.93,-3.79,24.3125,-24.875,-1.4375,-12.34,-3.53,1.37,22.1875,0.625,-2.5
32428,-8.23,-1.02,3.07,-86.8125,-10.625,3.8125,-10.73,1.17,0.34,2.75,152.375,13.25
32531,-8.78,2.26,1.13,-52.625,-71.0,-7.375,-13.04,-2.62,3.26,-1.25,150.25,-48.9375
32631,-8.74,0.31,0.14,-58.5,-76.8125,0.5,-8.98,-0.56,1.29,-143.125,113.8125,-28.875
32731,-9.2,3.37,0.0,-74.9375,-50.3125,-5.375,-5.52,0.73,1.5,-95.875,39.9375,-7.375
32829,-8.86,0.42,0.71,-4.0625,-60.125,-14.0,-6.88,-0.71,-3.05,70.875,-32.25,10.4375
32927,-10.33,2.53,2.07,-49.5,-52.6875,-3.3125,-12.45,-0.37,-9.27,10.75,-38.3125,-4.1875
33029,-12.02,2.14,0.16,-68.3125,1.5625,5.5625,-10.82,-2.36,2.71,-105.75,-83.625,0.0625
33133,-10.97,-1.73,-1.07,-17.0625,163.375,-7.3125,-5.06,-0.21,6.81,21.75,-24.4375,-23.125
33228,-12.4,4.22,1.98,114.125,160.8125,54.4375,-10.04,-2.65,3.43,80.1875,-78.8125,-22.0
33330,-9.36,-1.89,-0.24,156.4375,127.875,42.375,-8.63,-0.25,0.2,94.8125,-29.6875,-16.4375
33428,-4.58,-0.06,0.25,30.1875,53.1875,23.125,-8.9,-1.05,1.7,42.25,-41.4375,-2.3125
33531,-4.26,1.12,-5.0,-2.1875,-53.6875,-27.75,-9.01,-0.19,1.22,24.5,-61.5625,4.0625
33632,-10.72,3.22,-7.45,13.4375,-7.1875,12.0625,-11.37,-2.75,1.11,54.75,-21.1875,-0.375
33730,-11.26,3.42,-3.28,3.8125,-39.25,40.0625,-12.2,-0.06,-0.09,12.4375,26.9375,-11.0
33827,-14.62,4.64,-1.13,-48.0,-74.0,-1.0,-13.0,-1.37,2.54,4.9375,191.375,17.5
33931,-9.59,1.4,-0.01,-54.5,-84.0625,3.375,-10.62,-1.87,2.86,-139.8125,135.75,-32.4375
34030,-8.88,1.35,0.07,-73.125,-72.8125,-3.4375,-6.25,0.28,-0.48,-97.9375,100.375,-17.5
34132,-8.9,1.73,-0.01,-43.6875,-67.5,-15.875,-5.07,1.52,-0.72,20.8125,6.5625,-17.25
34229,-8.9,2.45,0.33,4.5,-62.875,-17.9375,-8.83,-3.28,-2.6,-22.625,-58.875,18.6875
34332,-11.06,0.61,1.69,-24.8125,-45.375,-2.375,-10.14,-1.24,-5.31,22.0625,-29.1875,-14.625
34430,-14.07,2.07,0.18,-57.0625,26.4375,20.125,-16.93,-0.01,-4.52,-62.5,-99.875,8.5
34528,-12.74,2.18,2.78,-23.9375,194.375,-0.625,-9.73,-1.94,2.86,-6.8125,-68.375,17.6875
34631,-11.61,1.47,1.69,153.1875,154.625,47.8125,-10.05,0.61,1.1,26.5,-53.9375,-18.8125
34732,-6.73,0.05,-0.52,84.1875,122.1875,26.1875,-8.78,-1.71,2.56,104.8125,-43.625,-15.3125
34831,-4.3,-0.67,-0.44,41.625,14.25,1.625,-9.53,-0.92,1.61,8.1875,-57.75,4.25
34929,-12.36,2.15,-6.89,-17.9375,-101.0625,-37.625,-10.2,-2.83,1.8,58.5,-37.625,5.1875
35027,-7.1,0.68,-5.58,27.1875,-29.125,28.0,-11.14,0.03,1.02,32.0,-3.5,-1.5625
35132,-9.37,4.32,-0.8,48.5625,-10.0,51.0625,-10.44,1.2,-0.33,3.0,81.5625,0.4375
35238,-10.31,2.18,0.96,-16.125,-81.8125,4.25,-14.41,-4.34,4.19,48.4375,154.3125,-46.75
35335,-9.06,0.9,0.33,-44.625,-89.9375,14.3125,-11.38,-0.97,1.56,-170.6875,109.5625,-26.75
35439,-9.52,1.21,-0.56,-63.5,-68.625,1.4375,-4.99,-0.31,0.89,-97.0,53.25,-7.1875
35537,-8.85,2.49,0.93,-34.8125,-62.1875,-16.5,-6.35,1.55,-2.33,67.875,-24.3125,-2.5
35634,-9.67,1.4,0.61,-24.0,-54.6875,-10.25,-12.09,-2.29,-6.09,-84.4375,-54.125,11.9375
35731,-12.86,1.36,0.5,-59.875,-29.9375,1.125,-9.65,1.9,-1.64,-54.3125,-64.8125,5.75
35839,-11.37,0.3,-0.25,-30.375,90.4375,12.5625,-5.78,0.79,0.87,49.1875,-54.5,-36.1875
35938,-13.26,5.4,2.58,-21.8125,162.125,52.125,-10.51,-3.38,0.32,-10.5,-69.1875,1.0
36034,-12.21,0.0,0.94,175.6875,129.0625,38.0625,-9.46,-0.82,-0.65,31.4375,-29.9375,-17.5625
36131,-6.33,0.41,-0.03,83.875,100.125,28.125,-9.1,-1.64,2.22,49.375,-40.3125,-9.0625
36237,-3.93,-1.68,-0.99,23.25,0.625,-4.9375,-9.77,-0.16,1.75,22.25,-64.9375,5.9375
36337,-14.39,2.76,-8.55,20.4375,-99.5,-28.0,-10.97,-2.77,1.16,35.5625,-34.0,4.125
36438,-10.93,-0.84,-5.23,26.25,-51.125,8.0,-13.69,-2.28,2.31,35.0,-7.8125,-3.0
36537,-5.91,-1.44,0.89,-45.25,-10.4375,34.1875,-11.0,1.21,0.36,46.625,104.125,10.3125
36631,-9.27,1.04,1.42,-57.5,-76.5625,-1.0625,-12.8,-2.56,3.9,-28.9375,153.375,-35.25
36731,-9.07,1.17,0.4,-56.1875,-92.5625,1.125,-10.91,-0.43,1.58,-134.125,117.5625,-22.625
36830,-9.23,2.27,0.82,-73.25,-69.25,-10.875,-5.93,0.16,0.88,-84.0625,76.0,-9.0
36928,-9.12,1.23,0.75,-10.4375,-56.8125,-9.5,-5.59,0.09,-1.69,49.3125,5.875,2.4375
37031,-9.29,1.9,1.25,-15.6875,-48.875,-2.0,-13.34,-1.75,-7.63,-25.125,-52.625,1.6875
37132,-10.86,-0.26,1.36,-51.875,-23.375,4.0625,-6.59,0.96,-1.5,-65.1875,-43.25,-20.75
37231,-11.35,-0.7,-0.09,-48.6875,85.0,-3.3125,-14.85,-0.01,-4.97,-18.75,-89.3125,-7.1875
37332,-13.47,4.04,1.94,7.875,164.75,59.3125,-9.98,-1.5,2.65,-8.9375,-69.9375,5.1875
37426,-11.63,0.85,0.8,133.375,136.3125,37.875,-10.03,-0.34,-0.52,36.375,-45.6875,-23.375
37531,-6.66,0.68,-0.22,86.75,92.125,21.4375,-9.11,-2.69,1.59,91.4375,-39.5625,-9.5625
37629,-4.73,-1.37,-0.88,7.75,2.4375,-0.25,-9.56,-0.23,0.93,11.25,-51.5625,-1.1875
37731,-12.34,2.82,-7.37,-1.6875,-95.5625,-27.5,-9.1,-2.18,2.55,33.75,-54.5,4.9375
37829,-7.62,0.65,-5.68,44.8125,0.5625,28.1875,-10.43,0.01,2.64,48.6875,-26.9375,1.0
37932,-10.91,0.4,-5.49,56.125,-23.8125,32.25,-12.12,-0.72,0.54,4.5625,4.625,-5.4375
38030,-13.24,2.84,-2.43,-56.625,-39.5625,11.5625,-11.48,0.79,0.25,-16.625,159.9375,19.5625
38128,-9.17,2.79,0.6,-20.375,-87.8125,-3.75,-11.4,-1.71,2.71,-71.1875,146.3125,-23.3125
38227,-8.55,-0.11,-0.07,-93.3125,-100.9375,-15.25,-7.94,-1.07,0.78,-93.6875,111.9375,-26.6875
38332,-9.33,2.07,1.25,-40.9375,-80.9375,-27.1875,-5.75,0.58,1.6,-40.5,21.6875,-11.0625
38429,-9.81,2.4,0.0,-13.75,-58.6875,-5.875,-8.85,-2.23,-3.87,-19.8125,-40.6875,19.5
38528,-10.86,0.45,2.49,-54.9375,-36.8125,1.125,-9.47,-0.12,-5.32,44.0,-14.625,-18.625
38632,-12.43,3.1,0.29,-40.6875,-0.6875,7.5,-13.66,-1.69,0.0,-37.8125,-111.0625,-4.25
38732,-9.3,-1.41,0.08,6.6875,169.9375,14.8125,-7.23,-1.61,3.49,52.125,-40.875,-17.875
38827,-12.0,2.62,2.03,88.375,158.8125,55.0,-9.24,0.18,3.07,20.6875,-62.0625,-15.0625
38929,-9.69,1.14,0.42,132.5,133.75,49.75,-9.16,-0.73,0.89,78.9375,-29.375,-19.3125
39027,-5.09,0.07,0.49,69.1875,39.25,22.5625,-8.84,-1.51,1.87,35.125,-45.25,-7.8125
39132,-5.27,0.09,-3.66,-7.1875,-61.3125,-24.8125,-9.65,-0.81,0.31,43.1875,-63.25,6.375
39228,-10.08,2.08,-6.73,23.6875,19.75,17.625,-10.68,-1.41,3.0,33.75,-27.8125,0.75
39331,-10.02,1.43,-5.85,21.25,-11.0625,28.375,-11.7,-1.76,0.98,22.3125,-0.9375,-6.5625
39430,-17.85,3.7,-1.86,-45.8125,-41.5,-9.0,-11.56,0.79,0.43,-3.25,152.9375,11.3125
39529,-9.65,3.28,0.31,-63.4375,-86.75,2.4375,-11.45,-2.68,3.24,-66.75,151.6875,-36.25
39629,-8.68,0.78,0.48,-79.5,-97.0,-8.375,-8.22,0.23,0.55,-117.8125,120.1875,-22.375
39731,-9.21,1.43,0.03,-75.125,-78.25,-19.3125,-5.63,1.49,0.89,-52.25,35.5,-12.625
39828,-9.1,2.16,0.3,-8.6875,-51.5,-6.4375,-7.03,-1.89,-2.18,7.6875,-38.0625,17.1875
39931,-10.14,1.15,2.72,-41.375,-42.3125,-1.1875,-11.47,-1.77,-5.68,46.0,-33.9375,-19.125
40028,-10.87,1.87,0.77,-52.25,-7.1875,4.125,-10.43,0.05,0.54,-54.4375,-90.6875,-3.875
40133,-10.07,-2.11,-1.48,-10.9375,115.625,3.25,-6.69,-0.33,3.62,25.1875,-41.125,-17.125
40231,-12.48,4.29,1.93,25.375,160.5625,49.6875,-9.6,-1.71,3.86,11.1875,-65.375,-9.0625
40329,-11.46,0.08,0.28,153.6875,128.6875,45.3125,-8.9,-0.57,1.47,71.3125,-31.6875,-20.125
40427,-5.86,-0.4,-0.4,77.25,90.0,24.3125,-8.62,-1.26,2.0,57.5,-40.8125,-8.4375
40531,-3.62,-1.0,-1.93,8.875,0.125,-10.875,-9.7,-1.14,1.87,20.5625,-61.125,5.5625
40631,-13.34,2.33,-9.2,18.25,-80.25,-12.6875,-11.08,-2.43,1.44,61.0625,-33.0625,3.6875
40727,-13.05,-2.23,-4.18,36.625,-36.875,-2.5,-12.95,-3.06,2.11,34.4375,-7.3125,2.4375
40830,-5.2,-1.52,4.01,-76.125,-5.75,15.6875,-9.78,2.81,0.45,13.1875,131.125,-6.375
40931,-8.07,-0.88,1.19,18.625,-71.875,-5.375,-12.62,-2.58,2.9,33.4375,147.75,-49.9375
41032,-9.37,1.72,0.32,-59.1875,-75.8125,4.8125,-9.17,-1.04,0.39,-145.8125,118.125,-26.1875
41131,-9.11,0.67,0.4,-72.625,-66.25,-1.4375,-6.28,0.37,1.53,-98.5625,47.375,-3.9375
41230,-9.85,2.46,-0.25,-15.75,-59.375,-10.0625,-5.71,-1.44,-1.82,78.25,-16.375,14.0
41327,-9.8,2.15,1.59,-59.25,-41.0,-1.3125,-13.6,0.0,-8.48,18.625,-78.4375,-6.0625
41431,-11.55,3.21,0.68,-52.6875,-5.625,-0.625,-11.55,0.54,0.39,-94.6875,-64.25,6.5625
41531,-11.23,-1.76,-1.53,-12.8125,144.5,-4.0,-6.37,0.22,6.01,44.3125,-61.5,-31.875
41632,-12.13,3.41,2.05,35.75,159.5625,45.3125,-9.24,-1.39,2.26,58.9375,-57.0625,-27.3125
41727,-9.84,0.41,-0.5,159.75,117.375,31.3125,-9.04,-1.18,-0.32,65.875,-28.625,-13.4375
41831,-6.04,-0.78,-0.84,52.125,62.375,31.25,-9.01,-2.4,1.58,25.0,-45.125,-1.5625
41930,-3.83,-0.61,-2.79,-25.1875,-21.6875,-4.25,-9.41,-0.71,1.54,22.5,-57.0,3.375
42032,-12.18,2.96,-9.69,31.375,-51.875,-7.5625,-10.46,-2.28,2.46,57.0625,-45.4375,3.75
42125,-11.15,-2.65,-5.58,52.5,-12.4375,-8.125,-12.06,-3.27,0.98,48.5625,-13.625,2.25
42231,-5.47,-3.3,3.98,-75.25,-11.9375,32.75,-10.97,3.7,-0.38,3.4375,154.9375,14.375
42329,-8.46,0.99,0.67,30.5625,-63.4375,1.3125,-12.65,-2.85,3.23,-63.6875,154.625,-48.125
42432,-9.12,1.2,0.25,-49.8125,-76.75,11.25,-9.45,-0.39,0.47,-89.125,123.9375,-23.625
42530,-8.8,1.08,-0.07,-78.75,-79.5625,1.375,-4.98,0.45,1.09,-80.6875,34.0625,-7.25
42633,-9.47,2.46,0.28,-34.5,-71.125,-26.3125,-5.61,-0.1,-1.04,17.75,-42.0,8.0
42732,-9.08,1.21,1.83,-44.6875,-45.0625,1.1875,-14.93,-1.69,-8.17,5.375,-59.0625,-11.375
42831,-12.11,2.71,1.48,-63.5,-20.25,4.9375,-10.54,0.82,0.91,-101.5625,-87.9375,13.0625
42933,-11.63,-2.3,-1.48,-51.0,119.25,-18.4375,-8.5,0.75,4.85,26.625,-36.8125,-31.6875
43032,-12.54,2.75,1.41,75.0625,151.5625,58.625,-10.7,-5.09,-0.32,19.9375,-58.4375,2.125
43132,-11.31,0.26,0.18,141.1875,128.8125,23.4375,-8.75,0.18,-0.12,33.25,-30.8125,-15.0
43232,-6.16,0.04,-0.45,48.5,95.3125,14.875,-9.23,-2.8,1.14,32.625,-43.3125,-5.5
43331,-3.7,-0.04,-2.72,3.8125,14.125,4.9375,-9.0,-0.27,2.29,16.0,-58.4375,4.75
43429,-12.02,1.25,-8.43,32.0625,-77.1875,-9.375,-10.3,-1.83,2.52,56.6875,-54.0,3.1875
43532,-11.18,-1.29,-5.27,53.75,-34.6875,24.25,-13.13,-4.44,3.41,58.375,-43.0,11.75
43630,-3.56,-3.16,2.62,39.0,63.1875,34.8125,-11.81,-1.71,1.28,23.0,57.25,-12.125
43728,-9.58,3.2,1.07,-19.75,-105.375,3.5625,-13.22,-1.96,4.0,-65.0,195.5,-7.375
43830,-9.81,0.25,-0.73,-58.9375,-97.125,3.75,-11.94,-1.08,3.02,-136.0,150.6875,-19.875
43934,-9.82,1.76,0.29,-75.875,-72.6875,-4.75,-6.09,-0.36,-0.4,-86.6875,97.25,-19.6875
44026,-8.68,1.34,1.08,-61.125,-58.625,-19.25,-5.54,0.88,0.36,4.9375,-4.5,-7.25
44133,-8.66,1.11,1.77,22.6875,-57.5625,-10.3125,-9.34,-1.62,-3.9,-7.6875,-48.9375,31.9375
44229,-11.35,1.04,2.19,-52.8125,-36.0625,-8.6875,-10.89,-1.17,-4.91,58.125,-21.1875,-4.4375
44327,-12.25,0.55,1.11,-27.875,33.375,15.25,-14.12,0.87,-3.22,-41.3125,-103.375,-20.5
44431,-11.52,1.62,3.02,-21.8125,178.875,25.6875,-6.82,-0.71,5.11,-0.25,-65.8125,-4.9375
44529,-12.44,0.44,1.99,154.3125,155.1875,46.4375,-10.16,-0.83,0.71,53.125,-47.6875,-24.0625
44632,-7.69,0.6,-0.43,99.3125,140.25,34.0625,-8.68,-1.82,2.31,86.4375,-39.75,-15.75
44728,-4.19,-0.68,0.07,29.0625,35.3125,6.6875,-9.14,-1.21,1.6,35.0625,-53.4375,1.0
44831,-6.76,1.11,-5.56,-16.75,-96.25,-20.1875,-9.73,-1.5,0.96,25.4375,-46.5,-0.4375
44938,-9.6,2.41,-7.12,-32.375,-41.5,22.875,-11.16,-1.78,2.36,58.875,-28.375,6.5625
45033,-11.99,2.66,0.52,50.9375,-86.1875,10.6875,-11.53,-0.08,-0.7,18.3125,44.4375,-12.75
45133,-8.64,1.54,0.21,34.375,-82.5,1.875,-13.1,-4.29,4.75,21.0625,183.125,-22.875
45238,-9.01,-0.8,0.18,-46.0,-83.375,10.0625,-11.79,-0.63,1.82,-142.125,135.5625,-20.5
45337,-9.14,2.04,0.89,-89.75,-68.625,-0.9375,-5.96,-0.1,0.41,-96.5,91.875,-4.625
45439,-9.16,0.87,0.77,-25.9375,-61.0625,-16.75,-5.4,1.25,-1.4,43.8125,3.375,-9.75
45539,-9.0,2.71,2.1,-2.6875,-47.25,-9.4375,-10.85,-1.96,-4.54,-38.6875,-66.3125,18.3125
45640,-11.42,0.03,2.12,-47.375,-37.0,-6.5,-8.89,0.28,-3.16,3.0625,-15.125,-16.9375
45740,-11.87,0.81,0.93,-41.125,4.5625,3.875,-15.18,0.06,-3.18,-66.4375,-125.5,-18.125
45835,-10.49,0.26,0.25,-10.9375,146.0625,11.9375,-5.47,0.7,5.19,18.1875,-67.5625,-6.1875
45936,-11.93,2.55,1.76,86.4375,154.4375,48.6875,-9.47,-1.24,2.84,42.0625,-64.375,-20.125
46036,-9.39,0.63,0.07,118.4375,135.3125,46.875,-9.05,-0.69,1.71,80.8125,-34.125,-13.375
46132,-5.12,-0.11,-0.09,70.75,70.375,24.0625,-8.57,-0.87,2.33,60.8125,-43.6875,-7.125
46237,-4.18,-0.21,-3.48,14.9375,-45.625,-17.6875,-8.78,-1.36,0.75,39.5,-48.375,-1.3125
46328,-10.76,2.1,-8.31,2.3125,-20.0,9.75,-11.34,-1.55,1.86,58.3125,-23.375,4.0
46428,-8.21,1.41,-3.66,21.9375,-20.75,13.0625,-12.32,-2.37,1.24,14.875,4.4375,-3.8125
46531,-12.48,-0.14,1.02,-59.8125,-73.0625,-17.6875,-11.52,-0.32,1.93,-31.375,153.0625,2.75
46629,-8.93,2.31,-0.32,-49.9375,-70.0625,-2.375,-11.74,-1.33,3.05,-138.25,139.5625,-26.6875
46732,-8.92,1.02,0.21,-55.3125,-80.625,-3.5625,-7.78,0.37,0.83,-95.125,118.4375,-5.25
46829,-8.74,0.99,0.14,-66.375,-76.75,-12.0,-6.14,0.46,0.75,-12.1875,27.875,-12.5625
46932,-9.18,1.14,0.71,-2.5,-72.5625,-19.9375,-7.04,-1.39,-1.88,-10.75,-48.0625,18.5625
47031,-9.89,1.37,2.22,-66.25,-40.375,-2.875,-13.22,0.13,-7.35,30.625,-46.875,-10.75
47133,-12.75,3.13,1.15,-41.5625,-17.3125,-5.125,-10.35,0.65,-0.38,-120.1875,-66.0,4.125
47234,-10.24,-1.58,-0.34,-49.25,129.375,3.1875,-6.87,-1.04,4.18,15.9375,-48.8125,-27.6875
47333,-13.43,3.58,2.18,74.1875,158.625,59.375,-9.49,-4.23,1.73,31.8125,-56.75,-8.5625
47432,-10.58,-0.33,0.27,127.9375,144.5,31.3125,-9.07,-0.11,-0.32,49.9375,-31.8125,-16.75
47530,-5.38,0.91,0.04,65.75,72.75,21.125,-8.86,-2.32,1.79,56.8125,-43.625,-3.0625
47633,-5.48,-0.85,-3.2,10.0625,-23.9375,-13.3125,-8.89,-0.32,2.07,-4.5625,-58.5625,1.8125
47728,-12.35,1.93,-9.15,-6.375,-22.8125,6.6875,-10.08,-2.02,3.46,45.0625,-49.6875,5.9375
47832,-9.28,-0.78,-4.72,59.875,-16.625,17.625,-13.41,-4.0,1.82,60.1875,-30.9375,0.1875
47930,-9.15,-3.73,1.79,-54.0,-58.5,26.6875,-12.66,0.39,1.12,46.4375,93.8125,-14.0
48031,-10.07,2.55,-1.09,-1.0625,-72.25,-7.25,-13.58,-4.87,5.07,30.1875,175.75,-36.3125
48132,-9.58,1.45,-0.2,-58.8125,-95.625,10.3125,-10.82,0.12,1.16,-167.4375,134.4375,-10.8125
48230,-8.72,0.56,-0.59,-59.9375,-79.75,-9.9375,-5.21,-0.6,0.95,-37.25,82.0,-5.4375
48328,-9.19,0.45,0.9,-3.5625,-77.8125,-17.4375,-4.61,0.75,-0.5,51.1875,-31.625,-7.0
48433,-9.18,1.87,3.02,-37.375,-53.6875,-11.0,-14.19,-2.18,-8.27,-37.0625,-72.125,8.3125
48534,-12.88,2.24,1.53,-67.375,-37.875,-9.5,-8.57,1.21,-1.99,-66.9375,-42.75,-11.0
48630,-11.97,0.44,0.97,-26.125,49.125,12.9375,-8.18,-0.42,-1.18,43.5,-46.125,-30.375
48729,-13.0,2.74,2.49,-19.5625,163.9375,35.375,-10.41,-3.87,0.16,13.25,-64.4375,7.0
48828,-12.23,0.89,1.17,172.1875,145.5,47.25,-9.7,-0.71,0.4,46.0625,-36.375,-14.0625
48929,-7.61,1.36,-0.12,81.5625,133.875,36.75,-8.98,-2.05,2.16,68.4375,-38.6875,-9.3125
49032,-4.67,-0.91,-0.51,46.625,43.1875,3.5625,-9.28,-1.3,2.01,28.5625,-51.1875,0.6875
49132,-10.08,1.59,-7.03,3.5,-83.625,-22.3125,-10.08,-1.99,2.02,43.75,-46.0,6.375
49231,-8.05,-0.18,-5.96,-6.4375,-36.0,23.1875,-10.79,-1.24,2.58,49.625,-19.1875,5.5
49330,-8.38,2.81,-3.81,36.25,9.8125,46.875,-11.43,0.09,-0.11,2.75,42.125,-3.125
49429,-9.13,2.5,1.58,6.75,-54.8125,5.9375,-12.92,-2.29,4.0,-17.9375,177.6875,-10.3125
49528,-9.46,0.5,-0.09,-46.25,-97.0,2.6875,-11.38,-1.46,2.01,-167.9375,129.875,-20.875
49627,-9.69,2.38,-0.33,-80.3125,-81.75,-12.0,-6.45,0.26,0.18,-97.3125,102.125,-7.9375
49729,-9.43,1.61,0.38,-21.0,-58.25,-18.5,-5.46,1.16,-0.3,35.875,11.0625,-6.0
49827,-8.99,1.66,2.05,9.75,-48.5,-10.5,-9.75,-2.22,-4.21,-45.5,-69.125,12.75
49931,-11.5,1.86,2.19,-82.375,-21.4375,-4.25,-10.56,-0.55,-3.59,-6.1875,-36.1875,-8.4375
50030,-12.09,0.31,0.21,-23.5625,12.875,4.5625,-13.62,0.78,-4.83,-52.75,-116.6875,-31.125
50131,-10.1,0.8,1.39,-20.125,162.25,5.8125,-10.47,-2.56,3.92,32.75,-68.0,12.125
50225,-12.76,0.74,1.82,141.0625,145.9375,54.8125,-10.17,-0.68,2.04,51.8125,-55.5,-16.8125
50329,-8.04,0.8,0.0,103.3125,135.875,41.6875,-8.53,-1.81,2.35,108.0,-36.1875,-12.25
50432,-4.7,-1.19,-0.18,54.0625,50.9375,10.0,-8.95,-0.7,1.73,30.25,-50.625,-0.125
50531,-6.76,1.85,-7.03,7.875,-77.375,-29.25,-8.98,-1.96,1.14,69.8125,-52.0,4.0625
50628,-9.35,-0.46,-5.78,-29.375,-47.4375,24.8125,-11.31,-0.75,1.44,60.6875,-19.4375,2.5625
50732,-1.4,-1.9,-0.34,28.8125,27.375,68.6875,-11.25,-0.68,-1.05,-19.0,60.875,-5.125
50834,-9.92,1.28,-0.17,-14.5,-94.8125,6.5,-13.3,-3.37,4.85,-21.1875,150.25,-31.875
50927,-9.65,1.5,0.34,-25.3125,-105.0625,13.0,-11.43,-0.4,2.26,-106.0,127.25,-10.75
51033,-9.26,2.19,1.1,-51.6875,-83.75,-9.0625,-5.0,-0.55,1.19,-60.9375,94.625,-2.0625
51127,-9.35,1.55,1.41,-11.6875,-65.0625,-22.125,-5.71,1.23,-1.79,35.375,-5.5625,8.625
51232,-9.92,1.63,1.47,-42.0,-42.0,-0.1875,-10.54,-1.54,-4.37,-26.8125,-80.875,13.0625
51331,-11.18,1.67,2.27,-55.375,-19.375,-1.3125,-10.87,2.01,-1.6,13.6875,-57.5,-15.4375
51428,-11.88,-1.6,-0.1,-26.1875,76.5625,1.125,-4.99,-0.75,1.48,-9.3125,-29.4375,-24.0
51527,-13.13,3.19,1.67,34.75,156.1875,47.1875,-10.95,-3.7,-1.25,5.3125,-62.875,-2.375
51633,-11.52,-0.18,0.37,134.25,143.125,25.5625,-9.43,-0.76,0.33,51.75,-29.8125,-13.375
51729,-6.87,1.31,0.09,64.6875,114.4375,25.9375,-9.32,-2.1,1.77,32.125,-40.875,-3.5625
51832,-4.22,-0.69,-0.8,30.8125,11.375,6.875,-9.02,-0.59,2.52,8.625,-57.0625,4.1875
51929,-12.51,2.05,-8.29,4.75,-103.75,-37.6875,-9.39,-1.96,1.49,62.6875,-37.0,3.9375
52033,-14.13,-3.58,-4.28,38.3125,-11.875,2.25,-13.03,-2.95,2.8,48.625,-19.375,6.3125
52132,-4.81,-4.14,3.76,-103.75,-95.5625,9.25,-10.61,2.09,-0.16,18.1875,93.4375,0.875
52228,-9.67,0.62,-0.7,-19.125,-62.75,-4.0,-13.6,-3.0,4.47,28.125,144.0625,-39.75
52330,-8.8,0.93,-0.22,-37.3125,-91.8125,-0.0625,-10.53,-0.35,1.41,-124.8125,118.75,-17.0625
52428,-9.41,1.49,-0.27,-80.8125,-76.3125,-7.75,-6.14,-0.68,0.8,-82.6875,65.9375,-9.9375
52530,-8.8,0.96,1.16,-12.0,-51.6875,-13.8125,-4.95,1.01,-2.54,54.8125,5.3125,-2.75
52632,-9.0,1.02,0.94,-17.1875,-51.9375,-0.9375,-10.22,-0.79,-5.13,-36.0,-21.375,4.8125
52730,-11.72,1.9,1.11,-70.6875,-28.0,-2.6875,-8.31,0.29,-2.45,-36.75,-55.4375,-12.0
52831,-13.16,1.36,0.41,-30.25,54.875,3.6875,-16.39,0.21,-4.93,-34.6875,-102.0,-20.8125
52933,-13.34,2.44,2.83,-26.3125,171.0,40.125,-9.73,-2.95,2.5,-5.8125,-50.0625,7.9375
53029,-11.83,1.76,1.91,173.875,141.1875,42.6875,-9.9,0.25,1.9,37.375,-62.0625,-20.5625
53133,-6.6,-0.1,-0.33,100.25,108.125,26.875,-8.86,-2.7,2.05,107.375,-36.375,-10.875
53231,-4.82,-0.79,-0.47,10.8125,7.25,11.875,-9.17,-0.68,1.58,1.9375,-53.8125,2.125
53329,-9.72,2.37,-7.17,-16.9375,-110.1875,-41.5,-9.87,-1.71,0.79,57.3125,-43.125,8.375
53432,-10.92,-1.89,-3.13,-5.0,-18.5625,13.0,-13.07,-3.3,1.33,55.1875,-17.125,5.0
53530,-1.57,-5.46,2.09,-58.4375,20.375,71.5625,-11.6,2.4,0.58,-0.9375,87.9375,1.125
53629,-10.15,3.37,1.6,-17.125,-71.9375,-5.125,-13.65,-4.11,5.08,34.875,120.4375,-44.1875
53734,-9.79,0.8,-0.79,-67.5,-85.0,-7.8125,-10.11,1.1,0.35,-113.875,99.5625,-14.1875
53828,-8.94,1.83,-0.97,-67.375,-61.0,2.25,-6.9,-0.7,0.75,-99.5,48.5625,6.625
53931,-8.92,1.86,0.32,-61.1875,-49.375,-6.25,-6.55,0.69,-2.07,40.4375,3.75,-7.9375
54032,-8.75,1.71,0.67,-10.125,-67.875,-14.5,-8.47,-2.4,-3.96,-44.0625,-48.5625,5.625
54133,-10.67,0.71,0.4,-46.25,-29.5625,-6.8125,-8.08,-0.36,-3.31,-16.875,-1.5,-23.5
54230,-13.23,1.68,0.01,-38.5,112.25,7.25,-16.72,-0.92,-1.3,-134.0,-59.0,-11.75
54332,-13.79,1.4,1.02,-10.4375,141.125,78.75,-12.2,-1.5,2.39,-26.3125,-86.875,30.3125
54431,-10.21,0.83,0.79,177.5625,131.0,28.5625,-8.51,1.34,3.25,70.4375,-28.375,-18.9375
54538,-5.78,0.23,0.56,103.875,63.3125,10.0,-9.33,-2.28,2.39,58.1875,-40.625,-8.375
54632,-5.56,-0.89,-2.88,-54.8125,-18.375,0.8125,-9.35,-0.51,0.52,25.6875,-38.75,-2.1875
54741,-12.71,2.37,-8.8,12.9375,-52.6875,-11.25,-9.71,-1.77,2.14,29.3125,-33.875,1.8125
54838,-6.64,0.75,-4.57,51.625,26.6875,25.375,-9.25,-0.24,3.19,46.125,-26.875,-5.875
54941,-11.58,-1.12,-1.06,61.875,-39.5,-19.8125,-11.3,-3.82,4.52,35.8125,-31.6875,13.4375
55034,-6.67,-1.55,-5.82,55.75,30.75,22.5625,-11.4,-0.91,2.23,27.4375,-21.125,3.875
55141,-8.15,0.0,-1.93,-39.125,-29.5,14.9375,-10.58,-0.54,1.14,22.0,69.5625,-3.25
55237,-10.57,5.04,0.22,-55.875,-59.5625,-5.5625,-12.04,-1.48,2.59,-16.0625,170.8125,1.5625
55340,-9.63,0.47,-1.06,-48.375,-62.75,-2.3125,-11.03,-0.74,2.59,-109.75,118.6875,-26.9375
55438,-9.57,1.66,0.18,-59.375,-53.0,-9.6875,-7.46,-0.26,0.27,-79.0,89.375,-15.375
55532,-9.69,1.25,-0.56,-23.875,-37.0625,-4.4375,-7.29,2.35,-2.8,67.6875,12.125,-4.5625
55638,-9.62,1.7,1.05,0.75,-37.0,-5.375,-8.79,-2.13,-3.02,-20.3125,-19.5,7.75
55740,-9.28,0.85,1.48,-15.0625,-36.4375,-2.875,-9.58,-0.34,-2.97,-8.3125,-38.5625,-7.5625
55837,-9.23,1.23,1.64,-14.25,-35.75,-6.25,-9.69,0.39,-2.66,-12.625,-34.5,1.125
55934,-10.25,1.16,2.54,-15.4375,-27.4375,-0.75,-13.03,-2.73,-1.6,-36.6875,-63.25,-10.6875
56031,-10.31,0.46,2.1,-23.75,-3.0,-1.4375,-8.5,0.62,1.72,-26.4375,-33.5625,-12.125
56133,-9.06,0.86,2.13,-28.9375,15.1875,-0.8125,-9.87,-1.39,-0.68,5.0625,-42.75,2.375
56230,-10.22,-0.21,1.57,-12.3125,45.375,1.625,-9.66,-0.58,0.66,10.8125,-28.75,-6.3125
56334,-10.99,0.11,1.18,-10.5,124.0,5.6875,-9.35,-1.69,2.46,8.9375,-21.8125,-2.6875
56432,-10.54,1.66,1.14,72.5625,104.0,23.0625,-10.01,-0.66,1.48,6.5625,-18.25,-5.8125
56530,-8.61,0.19,-0.25,79.4375,46.0,23.0,-9.54,-1.14,1.31,36.6875,-6.6875,-5.6875
56632,-8.27,1.27,-1.23,43.0625,0.0625,22.75,-9.64,-1.32,1.57,10.0625,-17.875,2.4375
56728,-9.07,-0.73,-2.31,5.4375,19.75,5.3125,-9.72,-0.29,2.06,4.0625,-13.125,-0.5625
56832,-8.54,1.64,-3.12,7.625,22.1875,-4.6875,-9.65,-0.99,2.0,22.6875,-9.4375,-3.9375
56931,-7.97,1.04,-2.74,8.625,8.3125,-2.375,-9.51,-0.69,1.74,-1.3125,-9.5,-2.8125
57032,-7.8,1.53,-2.97,5.375,-27.5,2.0,-9.74,-0.73,1.96,5.1875,-15.625,1.0
57131,-11.57,1.45,-1.48,20.25,-81.3125,-10.5625,-9.59,-1.91,1.6,12.5,-23.9375,-0.3125
57230,-6.85,-1.73,-2.16,5.75,-4.0625,14.4375,-10.15,0.24,2.94,10.375,-1.5,-6.4375
57329,-10.07,1.74,-1.65,11.625,-18.625,-11.0625,-9.92,-0.99,2.18,47.6875,8.3125,2.25
57431,-9.79,0.07,-0.34,-9.1875,-24.875,3.0625,-9.11,-0.84,2.25,4.6875,13.375,-4.125
57529,-9.7,1.15,-0.7,-28.25,-4.125,1.4375,-9.37,-0.52,2.14,-6.125,15.75,2.3125
57629,-9.59,0.8,-0.21,-2.75,-4.5625,6.625,-9.96,-0.58,1.55,5.3125,19.1875,-6.0
57731,-9.56,0.89,0.08,-28.5,-9.375,-2.0625,-10.01,-0.39,0.31,2.75,39.0625,2.4375
57828,-9.77,0.9,0.38,1.5,-11.1875,-3.4375,-10.64,-0.09,0.33,-3.8125,91.75,5.75
57930,-9.83,1.69,0.45,-11.0625,-3.5,5.3125,-10.3,-2.0,1.36,13.0625,67.5,-13.9375
58030,-9.27,0.53,0.64,-6.625,-0.5,5.625,-8.02,-0.61,0.0,-41.0625,8.1875,-8.125
58130,-10.04,1.11,0.2,1.25,-2.8125,-2.75,-8.43,0.26,-0.73,-37.8125,-41.9375,-5.125
58232,-8.71,1.5,0.67,-12.8125,2.875,3.125,-9.82,-4.49,-0.57,-83.5,5.125,2.3125
58332,-9.57,0.87,0.38,-31.0,-5.875,2.375,-8.14,-5.39,1.38,13.5,-54.3125,14.0
58431,-9.82,0.69,0.53,8.75,-4.25,-2.1875,-10.18,0.61,0.15,-16.6875,-33.0,2.6875
58532,-9.73,0.83,0.6,5.5,0.125,-1.625,-9.62,-0.71,1.27,33.4375,19.3125,1.9375
58633,-9.51,0.88,0.54,-0.3125,-1.9375,0.1875,-9.67,-0.4,1.27,1.5,1.8125,-0.9375
58730,-9.52,1.03,0.64,2.5625,-2.4375,-1.4375,-9.97,-0.38,0.93,0.6875,-3.3125,2.4375
58828,-9.63,0.82,0.37,8.125,-0.875,-0.5625,-9.59,-0.38,1.3,6.8125,-1.1875,0.6875
58933,-9.71,0.81,0.73,7.375,-0.25,-1.0,-9.94,-0.33,0.81,10.0,0.1875,-1.0625
59027,-9.75,0.7,0.62,-6.8125,1.0,-0.125,-9.74,-0.62,0.86,-1.875,3.5,-0.5
59132,-9.55,0.78,0.6,-10.125,2.5,1.8125,-9.77,-0.36,1.04,-6.8125,-0.0625,0.1875
59229,-9.68,0.83,0.5,-9.3125,1.4375,0.6875,-9.78,-0.48,1.09,-9.375,-2.0,1.125
59332,-9.64,0.66,0.43,-12.5,2.1875,0.875,-9.8,-0.49,0.95,-6.9375,-1.3125,1.0625
59431,-9.58,0.9,0.34,-10.625,0.625,1.5,-9.78,-0.3,1.13,-9.1875,0.375,0.9375
59530,-9.68,1.14,0.34,2.125,0.0625,0.375,-9.78,-0.14,1.26,3.0625,1.625,-0.1875
59628,-9.69,1.0,0.57,7.8125,-1.25,-0.5625,-9.8,-0.32,1.07,5.0625,-2.125,0.0
59730,-9.73,0.83,0.64,4.6875,-0.4375,-0.625,-9.77,-0.39,0.99,5.625,0.75,-0.875
59827,-9.67,0.78,0.48,1.6875,-0.8125,-0.5,-9.72,-0.49,1.02,1.5,-1.3125,-0.125
59931,-9.72,0.89,0.54,-0.0625,-0.125,-0.0625,-9.82,-0.33,0.97,1.3125,0.3125,-0.1875
60031,-9.68,0.89,0.52,-1.5625,0.9375,0.3125,-9.76,-0.36,1.0,-1.4375,0.4375,-0.25
60130,-9.69,0.88,0.58,-1.1875,0.6875,0.0,-9.76,-0.37,1.08,-1.125,-0.25,-0.25
60228,-9.66,0.83,0.49,-0.375,0.0,-0.125,-9.81,-0.41,1.1,-0.625,-0.5,-0.25
60333,-9.7,0.83,0.51,0.0,-0.25,-0.375,-9.77,-0.41,1.02,0.125,-0.4375,-0.0625
60434,-9.68,0.9,0.52,-0.75,-0.125,-0.1875,-9.74,-0.37,1.02,-0.75,0.0,0.0
60530,-9.71,0.85,0.51,-0.25,-0.0625,-0.125,-9.75,-0.46,0.99,-0.4375,-0.4375,0.0
60629,-9.7,0.88,0.43,-2.3125,-0.375,-0.0625,-9.81,-0.34,0.99,-3.0625,-0.75,0.375
60732,-9.68,0.88,0.53,0.8125,-0.25,0.125,-9.73,-0.34,1.14,2.6875,0.3125,-0.3125
60829,-9.72,0.82,0.51,1.3125,-0.875,-0.0625,-9.77,-0.43,1.05,-0.75,-1.3125,0.5625
60932,-9.71,0.83,0.53,-0.6875,0.25,0.25,-9.77,-0.41,1.01,-0.6875,0.8125,-0.125
61031,-9.69,0.94,0.57,-1.125,0.3125,-0.1875,-9.79,-0.33,1.15,-0.5625,0.0625,0.0625
61129,-9.69,0.99,0.48,0.9375,-0.125,-0.3125,-9.77,-0.42,1.05,1.75,-0.0625,-0.25
61232,-9.66,0.82,0.57,0.4375,0.0625,0.0,-9.76,-0.42,1.02,-0.125,0.25,-0.1875
61331,-9.71,0.9,0.47,-0.0625,0.75,0.25,-9.81,-0.37,1.03,-0.75,0.375,0.0625
61431,-9.66,0.83,0.49,0.4375,0.0625,0.0,-9.76,-0.43,1.01,-0.3125,0.0,0.0
61530,-9.7,0.9,0.49,0.125,0.0,0.0,-9.79,-0.37,1.03,0.125,-0.4375,0.1875
61632,-9.68,0.78,0.51,-0.5625,0.1875,0.125,-9.75,-0.45,1.01,-1.125,-0.4375,0.1875
61727,-9.7,1.0,0.43,-0.4375,-0.75,0.0625,-9.76,-0.3,1.1,0.5,-0.25,-0.0625
61830,-9.69,0.84,0.53,0.75,-0.25,0.0625,-9.77,-0.38,0.98,1.625,-0.1875,0.0
61930,-9.73,0.82,0.56,-1.4375,0.25,0.0,-9.79,-0.39,1.01,-1.625,0.1875,-0.0625
62027,-9.69,0.92,0.46,-1.6875,0.4375,-0.0625,-9.8,-0.34,1.08,-1.375,-0.3125,0.0625
62131,-9.69,0.86,0.5,0.3125,0.0625,-0.0625,-9.75,-0.43,1.06,0.6875,0.125,-0.25
62230,-9.69,0.85,0.53,0.375,-0.125,-0.0625,-9.75,-0.45,1.02,-0.9375,-0.3125,-0.125
62327,-9.69,0.83,0.54,-2.6875,0.5,0.1875,-9.8,-0.48,1.02,-2.375,0.0625,0.375
62430,-9.69,0.9,0.4,-1.5,0.125,-0.3125,-9.75,-0.38,1.06,-1.8125,-0.0625,0.0625
62527,-9.67,0.89,0.45,0.75,-0.1875,0.0625,-9.75,-0.39,1.02,0.5,0.0,-0.0625
62631,-9.7,0.89,0.51,0.625,0.0,0.1875,-9.75,-0.41,1.06,0.5,0.3125,-0.125
62732,-9.68,0.86,0.51,-0.375,-0.25,-0.125,-9.75,-0.38,1.05,0.25,0.0,0.0625
62830,-9.65,0.83,0.49,0.1875,-0.3125,-0.125,-9.75,-0.4,1.01,0.0,-0.625,-0.0625
62928,-9.71,0.9,0.45,0.0625,-0.4375,0.0625,-9.77,-0.4,1.07,1.0625,0.3125,-0.0625
63027,-9.7,0.85,0.51,1.0,-0.625,-0.1875,-9.78,-0.42,1.06,0.5625,-0.4375,0.0
63128,-9.7,0.89,0.46,0.6875,-0.375,-0.1875,-9.78,-0.45,1.02,0.6875,-0.4375,0.125
63232,-9.72,0.83,0.4,-0.25,-0.375,0.125,-9.78,-0.44,1.07,-1.1875,-0.3125,0.1875
63331,-9.7,0.9,0.54,-0.4375,-0.125,0.125,-9.8,-0.39,1.07,0.25,0.3125,0.0
63429,-9.68,0.93,0.54,-0.3125,-0.0625,-0.0625,-9.75,-0.34,1.05,-0.5,-0.3125,0.0
63532,-9.68,0.83,0.55,-1.375,0.875,0.0,-9.78,-0.42,1.0,-0.875,0.4375,0.0
63633,-9.68,0.9,0.43,-1.0625,0.625,0.125,-9.76,-0.34,1.08,-1.4375,-0.0625,0.0
63730,-9.7,0.85,0.43,0.125,0.1875,-0.1875,-9.8,-0.45,1.02,0.375,0.0625,-0.1875
63834,-9.67,0.84,0.38,0.375,-0.4375,-0.1875,-9.78,-0.45,0.98,-0.1875,-0.3125,0.125
63927,-9.67,0.87,0.48,-0.5625,0.3125,0.1875,-9.75,-0.39,1.04,-0.0625,0.5,-0.1875
64028,-9.69,0.91,0.44,0.8125,-0.25,-0.1875,-9.76,-0.39,1.11,0.375,-0.3125,0.0625
64127,-9.66,0.79,0.45,0.0625,0.125,0.125,-9.79,-0.46,0.96,0.5,-0.125,0.125
64231,-9.69,0.86,0.44,-0.4375,0.0625,0.25,-9.78,-0.45,1.0,-0.625,0.1875,0.0
64333,-9.72,0.88,0.55,-0.625,0.125,0.125,-9.81,-0.4,1.08,0.1875,0.25,0.125
64437,-9.66,0.93,0.43,-0.1875,-0.25,0.0,-9.69,-0.32,1.08,-0.375,-0.25,0.5
64538,-9.71,0.9,0.4,-0.0625,0.0625,-0.0625,-9.86,-0.41,0.92,-0.25,-0.75,0.5
64638,-9.66,0.84,0.53,-0.4375,0.1875,-0.0625,-9.76,-0.42,1.02,0.25,1.0,-0.25
64738,-9.72,0.96,0.41,0.5625,-0.1875,-0.0625,-9.82,-0.4,1.03,-1.1875,-0.625,0.1875
64838,-9.66,0.86,0.55,-0.125,0.3125,-0.25,-9.73,-0.45,1.09,1.125,0.4375,-0.0625
64940,-9.72,0.89,0.37,0.8125,-0.5,-0.25,-9.8,-0.32,0.98,-0.25,-0.75,-0.0625
65037,-9.73,0.81,0.45,0.9375,-0.125,0.0,-9.79,-0.45,1.08,1.75,0.6875,-0.3125
65138,-9.68,0.85,0.44,1.1875,-0.4375,-0.125,-9.79,-0.44,1.0,0.1875,-0.5625,-0.0625
65238,-9.69,0.89,0.44,0.0,0.0625,0.25,-9.8,-0.44,1.05,-0.0625,-0.0625,0.25
65338,-9.66,0.9,0.55,-0.3125,-0.25,0.125,-9.77,-0.32,1.03,0.8125,0.5,-0.125
65433,-9.69,0.86,0.43,-0.9375,-0.3125,-0.1875,-9.73,-0.41,1.09,-0.8125,0.0,0.0625
65539,-9.71,0.87,0.41,0.9375,-0.3125,-0.125,-9.81,-0.45,0.97,1.5,-0.125,0.125
65636,-9.74,0.9,0.45,0.25,-0.5625,-0.125,-9.78,-0.4,0.92,0.75,-0.375,0.125
65739,-9.64,0.9,0.45,-0.875,-0.125,0.3125,-9.7,-0.29,1.06,1.4375,0.0625,0.0
65827,-9.72,0.86,0.49,1.5625,-0.0625,0.0625,-9.8,-0.37,0.96,1.0625,-0.125,-0.0625
65930,-9.71,0.84,0.51,-0.875,-0.1875,-0.1875,-9.78,-0.41,1.04,-1.0,-0.25,0.125
66029,-9.69,0.9,0.49,-0.5625,-0.0625,0.25,-9.75,-0.34,1.02,0.5625,-0.0625,0.0
66133,-9.71,0.89,0.48,1.0,-0.5625,-0.0625,-9.79,-0.41,0.97,0.375,-0.625,0.125
66232,-9.72,0.88,0.46,0.0625,-0.125,0.125,-9.79,-0.43,0.95,0.3125,-0.125,0.0
66329,-9.69,0.89,0.49,-1.125,-0.1875,0.1875,-9.77,-0.39,1.03,-1.25,-0.5,0.1875
66430,-9.67,0.89,0.53,0.0,-0.1875,0.1875,-9.78,-0.39,1.1,0.375,0.1875,-0.0625
66528,-9.68,0.8,0.51,-1.1875,-0.0625,-0.375,-9.82,-0.5,1.0,-2.1875,-0.8125,0.625
66630,-9.66,0.97,0.42,-1.8125,0.3125,0.375,-9.69,-0.3,1.09,0.0,0.75,0.0625
66729,-9.66,0.86,0.48,1.875,0.125,-0.0625,-9.76,-0.37,0.99,0.375,-0.0625,-0.125
66832,-9.69,0.9,0.51,-0.4375,-0.4375,-0.125,-9.79,-0.45,0.97,-0.0625,0.1875,0.0
66933,-9.68,0.87,0.48,-1.125,0.0,0.0625,-9.77,-0.35,1.04,-0.25,-0.3125,0.125
67032,-9.7,0.86,0.45,-0.1875,-0.1875,-0.0625,-9.79,-0.36,1.02,-0.6875,-0.25,-0.0625
67132,-9.69,0.9,0.48,0.6875,-0.25,-0.375,-9.8,-0.41,1.03,-0.1875,-0.9375,0.0
67231,-9.65,0.8,0.5,0.1875,-0.1875,-0.25,-9.77,-0.45,1.04,0.9375,-0.5,0.0
67333,-9.7,0.82,0.52,0.0,-0.375,-0.0625,-9.76,-0.39,1.05,-0.5,-0.3125,0.0625
67434,-9.69,0.85,0.48,0.9375,0.0625,0.0,-9.75,-0.41,1.08,0.25,-0.25,0.0625
67526,-9.72,0.88,0.48,0.5,-0.25,0.0625,-9.79,-0.4,1.0,0.375,-0.125,0.0625
67629,-9.67,0.83,0.54,-0.625,-0.125,-0.0625,-9.77,-0.42,1.01,-0.1875,-0.25,0.0625
67730,-9.69,0.9,0.52,-1.1875,0.0,0.1875,-9.8,-0.35,1.08,-0.875,0.125,0.125
67833,-9.69,0.92,0.48,0.9375,-0.3125,-0.0625,-9.78,-0.38,0.98,0.3125,-0.125,0.25
67930,-9.72,0.91,0.54,-0.5625,-0.0625,-0.0625,-9.8,-0.42,1.0,-0.375,0.0625,-0.0625
68031,-9.69,0.89,0.52,0.125,0.0,-0.125,-9.76,-0.37,1.08,0.0,-0.125,0.0
68130,-9.68,0.9,0.48,0.125,-0.125,-0.0625,-9.75,-0.44,1.0,0.25,0.125,-0.1875
68229,-9.72,0.92,0.48,-0.6875,-0.0625,-0.0625,-9.76,-0.37,0.98,-0.1875,-0.0625,0.0
68329,-9.7,0.89,0.48,-0.3125,-0.1875,-0.0625,-9.76,-0.4,1.03,0.125,-0.25,0.0625
68432,-9.67,0.88,0.52,-0.375,-0.25,-0.125,-9.76,-0.38,1.08,0.5,-0.125,-0.0625
68528,-9.71,0.86,0.53,0.3125,-0.125,0.0625,-9.8,-0.39,0.96,0.1875,0.125,-0.0625
68631,-9.66,0.89,0.52,-0.75,0.0625,0.0625,-9.76,-0.43,1.04,-1.0,-0.3125,0.1875
68732,-9.69,0.92,0.5,0.3125,-0.3125,0.0625,-9.76,-0.36,1.05,0.5625,-0.125,-0.125
68829,-9.68,0.82,0.47,0.75,-0.1875,0.0625,-9.75,-0.42,1.03,-0.0625,-0.25,0.0
68932,-9.67,0.84,0.46,-0.75,0.25,0.0625,-9.75,-0.39,1.06,-0.4375,0.375,0.0625
69031,-9.7,0.87,0.47,-0.1875,0.125,0.0,-9.78,-0.41,1.04,-0.1875,-0.125,0.1875
69132,-9.69,0.9,0.51,-0.5625,-0.3125,0.1875,-9.74,-0.36,1.07,0.5625,-0.0625,0.0625
69229,-9.7,0.84,0.54,-0.3125,0.125,0.1875,-9.8,-0.35,0.99,0.4375,-0.1875,0.1875
69332,-9.68,0.9,0.55,-0.1875,0.125,0.1875,-9.74,-0.41,1.04,-0.1875,0.5625,-0.0625
69430,-9.7,0.91,0.51,-0.3125,0.0625,0.0,-9.78,-0.38,0.99,-0.8125,-0.375,-0.0625
69528,-9.69,0.88,0.48,-0.3125,0.125,-0.125,-9.77,-0.41,1.01,-0.5625,-0.125,-0.0625
69630,-9.69,0.89,0.42,-0.5,-0.3125,-0.3125,-9.76,-0.42,1.02,0.25,-0.8125,-0.0625
69732,-9.68,0.92,0.49,1.5,-0.5625,-0.3125,-9.77,-0.24,1.1,4.125,0.5625,-0.5
69830,-9.78,0.71,0.39,4.0625,-0.9375,-0.1875,-9.82,-0.53,0.88,-0.625,1.4375,-0.5625
69928,-9.7,0.88,0.58,-6.375,-2.375,-0.8125,-9.71,-0.69,1.08,-7.5,-5.0,1.75
70028,-9.71,1.03,0.49,-1.6875,-0.3125,0.0,-9.75,-0.02,1.25,0.875,1.0625,0.3125
70132,-9.68,0.97,0.66,6.4375,-2.0,-1.5625,-9.64,-0.36,1.12,2.4375,-1.4375,-0.5
70228,-9.71,0.99,0.47,-0.625,-0.6875,-0.875,-10.03,-0.37,0.9,-2.1875,-4.5,0.375
70332,-9.7,0.81,0.53,2.625,-0.5,-0.9375,-9.75,-0.33,1.31,5.125,2.1875,-1.0
70430,-9.75,0.78,0.71,5.125,-1.125,-0.75,-9.7,-0.45,1.3,6.125,-0.625,-0.25
70529,-9.75,0.73,0.76,2.3125,-1.1875,-0.9375,-9.87,-0.59,0.99,2.5,-0.875,-0.4375
70632,-9.65,0.86,0.7,-1.6875,-0.0625,-0.5,-9.73,-0.29,1.25,0.9375,0.3125,-1.25
70727,-9.69,0.8,0.45,3.625,0.4375,-0.625,-9.7,-0.43,1.25,2.125,-0.1875,-1.0625
70831,-9.66,0.72,0.56,2.3125,-0.4375,0.0625,-9.75,-0.58,0.91,1.875,-1.25,-0.75
70929,-9.71,1.17,0.31,3.5,-1.8125,0.125,-9.68,-0.05,1.14,6.0,0.875,-0.75
71027,-9.78,0.72,0.81,8.5,-0.8125,0.5625,-9.77,-0.47,1.0,6.75,0.6875,-1.625
71130,-9.67,0.55,1.23,-5.8125,0.3125,0.6875,-9.65,-0.82,1.25,-2.5,-0.75,0.0
71231,-9.72,0.71,0.84,-11.125,1.5,1.0,-9.76,-0.45,1.3,-13.8125,-0.9375,1.4375
71329,-9.72,1.1,0.46,-7.1875,1.4375,0.125,-9.74,-0.27,1.32,-9.0,-1.9375,1.875
71427,-9.66,0.88,0.42,-0.625,1.5625,0.3125,-9.72,-0.22,1.17,1.125,1.4375,-0.375
71531,-9.66,0.7,0.54,1.9375,1.25,0.3125,-9.73,-0.63,1.09,2.0625,2.1875,-0.75
71633,-9.68,0.79,0.45,-0.0625,1.1875,0.1875,-9.78,-0.51,1.02,0.1875,1.8125,-0.125
71733,-9.69,0.85,0.49,-1.0,0.625,0.25,-9.74,-0.42,1.05,0.0,1.1875,0.0
71829,-9.69,0.78,0.51,0.4375,0.5,0.1875,-9.76,-0.51,1.07,0.1875,-0.0625,0.1875
71929,-9.74,0.85,0.48,1.1875,0.5,0.125,-9.79,-0.45,0.99,0.75,0.75,0.0
72032,-9.68,0.85,0.51,-0.125,0.25,0.625,-9.81,-0.53,0.94,0.0625,0.375,-0.25
72132,-9.66,0.84,0.61,-2.25,-3.1875,-0.1875,-9.72,-0.42,1.09,0.0,-1.25,-0.0625
72228,-9.78,0.86,1.12,-3.625,-5.0625,-0.375,-9.74,-0.28,1.65,-0.0625,-7.125,0.125
72332,-9.49,0.76,1.25,-5.9375,-2.1875,-0.9375,-9.58,-0.03,1.71,0.1875,-3.5,-0.875
72431,-9.55,0.89,1.18,1.5,-6.4375,-2.8125,-9.59,-0.22,1.85,-3.375,-9.75,-0.0625
72529,-9.63,0.73,1.11,1.0625,-6.8125,-2.75,-9.8,-0.4,1.83,4.625,-13.6875,1.0
72628,-9.62,0.56,1.26,2.9375,-9.5625,-2.4375,-9.71,-0.7,1.96,-0.9375,-10.0,-0.875
72732,-9.63,0.57,1.28,-1.375,-10.375,-2.75,-9.57,-0.59,1.99,-0.6875,-11.75,0.5625
72830,-9.68,0.62,1.61,-4.75,-9.3125,-2.25,-9.6,-0.45,2.09,-4.0,-9.125,0.25
72928,-9.7,0.83,1.4,-4.5625,-4.3125,-1.1875,-9.36,-0.34,2.51,-3.4375,-10.0,0.0625
73031,-9.65,1.37,0.66,23.4375,21.8125,11.3125,-9.38,-0.2,2.73,-5.5625,-10.75,0.5
73131,-10.51,0.08,-0.21,26.9375,40.3125,5.125,-9.04,-0.26,2.82,-5.75,-15.875,1.375
73229,-11.76,0.72,-0.97,20.1875,75.375,4.3125,-9.8,-1.12,2.61,-18.75,-17.4375,1.8125
73329,-10.15,1.12,-0.75,52.0625,86.625,6.6875,-9.24,-0.39,2.87,3.1875,-12.9375,-2.125
73432,-8.19,0.83,-2.12,22.9375,60.0625,-7.6875,-9.23,-0.88,3.0,11.0,-14.0,-3.375
73531,-7.41,0.69,-2.96,9.125,10.75,-11.4375,-8.96,-0.68,2.65,11.375,-19.25,-2.75
73630,-8.0,0.79,-3.89,2.8125,-7.9375,-6.1875,-9.03,-0.25,3.57,6.4375,-23.875,-1.4375
73730,-9.28,0.72,-4.77,28.6875,-9.625,-4.0,-9.26,-0.43,3.53,16.5,-28.4375,2.5625
73832,-9.15,0.27,-5.23,26.9375,8.9375,11.9375,-9.98,-1.08,3.57,40.125,-27.125,4.125
73928,-7.19,-0.73,-4.32,60.6875,27.8125,18.125,-10.53,0.23,3.26,9.75,-13.6875,-0.125
74039,-11.12,1.61,-3.39,-53.4375,-32.0625,13.3125,-10.45,-0.81,1.51,28.4375,60.125,-1.5
74136,-10.91,2.88,1.53,-69.75,-87.5,14.3125,-10.97,-0.22,3.72,-52.6875,180.9375,-16.0
74239,-9.94,0.54,-0.03,-26.3125,-87.1875,3.5625,-11.51,-0.75,2.63,-123.3125,143.0625,-26.4375
74338,-9.12,1.57,0.85,-69.125,-80.4375,-4.6875,-7.42,0.5,1.02,-76.4375,135.4375,-3.9375
74429,-9.69,2.16,1.54,-35.625,-61.0625,-11.5625,-5.79,0.09,-0.24,32.6875,61.25,-8.8125
74532,-8.78,0.97,2.42,-19.5625,-55.5625,-5.0,-6.65,-1.36,-2.23,-51.5,-45.1875,-6.125
74633,-10.63,1.23,2.75,-56.375,-32.125,-6.75,-13.49,-1.3,-6.13,-17.5625,-38.0625,-10.25
74736,-11.15,1.66,0.75,-49.625,-10.625,1.5,-10.89,2.64,-1.4,-15.3125,-102.5625,-7.4375
74832,-10.9,0.54,0.11,-48.5625,139.0625,15.8125,-7.25,-2.28,4.35,-51.5,-38.4375,2.0625
74932,-13.23,1.47,2.32,41.0,166.5,54.125,-9.46,-1.89,2.04,4.125,-59.125,-14.375
75038,-10.06,1.27,0.75,136.3125,149.375,37.125,-8.31,-0.91,1.44,73.125,-32.625,-23.5
75140,-5.48,-0.14,0.55,77.9375,89.875,19.1875,-9.11,-0.85,2.15,52.5,-45.0,-9.0625
75233,-4.19,0.79,-2.01,21.1875,-24.1875,-3.1875,-8.65,-1.09,1.49,43.5625,-54.8125,0.9375
75338,-13.15,1.96,-8.15,10.4375,-44.8125,6.125,-9.49,-1.75,3.39,69.0,-35.125,2.6875
75438,-13.56,-2.97,-5.39,26.75,-39.75,20.0,-13.48,-4.74,1.6,54.3125,-33.125,4.875
75532,-6.52,-4.18,5.04,-94.875,-9.4375,29.25,-10.26,1.37,1.42,21.25,118.0625,-3.75
75630,-9.61,2.14,-0.32,-24.3125,-75.0,-1.25,-13.08,-2.7,3.53,-1.4375,156.9375,-34.75
75732,-9.6,0.11,0.24,-68.875,-95.0625,6.0625,-10.56,-0.1,1.33,-151.25,128.1875,-18.0625
75831,-8.93,1.99,0.14,-91.5625,-81.25,-7.0,-5.77,0.3,1.58,-66.875,71.9375,-1.125
75928,-8.7,-0.18,0.95,-18.6875,-76.625,-27.5625,-3.98,-0.1,-0.66,50.4375,-9.4375,2.125
76031,-8.58,0.69,1.81,-29.8125,-39.375,-1.375,-16.8,-1.76,-8.89,-25.625,-52.8125,-3.1875
76129,-12.78,2.96,0.44,-70.3125,-14.125,3.75,-10.51,1.25,0.31,-91.5,-78.5,5.6875
76226,-11.08,-1.79,-1.32,-46.8125,122.5625,-0.875,-8.55,-0.66,4.47,38.5625,-60.75,-23.8125
76329,-12.97,1.77,0.86,35.375,156.5,64.6875,-10.26,-4.04,0.45,6.875,-47.25,1.4375
76427,-10.74,1.25,0.51,158.125,127.0625,41.1875,-9.17,0.05,-0.62,38.375,-30.3125,-15.3125
76531,-5.64,-0.24,0.05,91.25,76.125,15.375,-9.05,-2.31,1.87,30.4375,-36.125,-3.9375
76629,-3.43,-0.91,-2.22,-45.625,-22.0,-1.9375,-9.0,0.2,2.16,37.3125,-62.5625,3.875
76727,-15.01,5.31,-12.17,109.75,-45.9375,0.375,-11.12,-2.27,1.92,59.25,-50.0,7.8125
76825,-9.23,-2.4,-4.24,40.5625,-5.4375,16.8125,-11.9,-2.85,0.75,34.3125,-11.5625,-6.75
76930,-4.47,-4.18,7.53,-64.9375,-77.25,-31.1875,-11.65,1.95,-0.72,-5.1875,155.6875,6.0625
77031,-9.92,2.16,-1.61,-19.5625,-63.3125,-6.625,-13.0,-1.5,3.54,-73.4375,165.1875,-55.5
77128,-8.54,0.24,0.94,-48.75,-85.6875,4.3125,-8.89,-0.04,1.23,-111.625,129.8125,-14.0625
77231,-9.14,1.62,0.16,-63.0,-69.625,-14.6875,-3.37,0.3,2.5,-56.375,27.25,6.4375
77328,-8.71,2.08,0.75,-15.1875,-57.9375,-19.0,-7.28,-2.39,-2.52,60.875,-42.625,12.0
77432,-9.66,1.11,2.61,-33.0,-43.1875,-4.375,-13.16,-2.11,-7.35,-10.8125,12.1875,-14.375
77531,-13.47,3.65,0.95,-62.125,-30.1875,-7.625,-10.03,0.47,1.08,-67.5,-46.375,-15.1875
77632,-12.39,-1.61,0.47,-47.6875,91.0,4.875,-7.76,-2.09,1.09,52.0625,-58.4375,-18.3125
77729,-12.6,2.05,2.15,29.4375,176.1875,59.0,-11.45,-4.54,-0.98,25.25,-52.5625,14.875
77831,-11.48,0.14,0.54,128.9375,157.5625,28.3125,-9.35,-0.19,-0.26,21.6875,-38.0,-15.5
77925,-5.76,1.02,-0.29,73.0625,105.5625,29.0,-9.56,-2.61,1.63,73.0625,-43.1875,-4.1875
78028,-4.43,-1.74,-1.33,33.0,-15.3125,9.3125,-8.93,-0.28,2.4,8.625,-56.5625,3.0
78130,-13.06,2.8,-7.93,19.75,-82.125,-18.25,-9.61,-1.06,3.15,66.0625,-40.3125,3.3125
78228,-15.24,-1.75,-5.33,47.5625,-21.5,0.8125,-12.88,-3.72,2.1,65.1875,-30.9375,7.25
78325,-5.45,-6.04,3.18,-101.75,-74.3125,20.875,-11.18,0.44,0.1,41.1875,82.1875,-7.8125
78427,-10.5,2.83,0.1,-19.25,-76.1875,-7.375,-13.66,-4.02,4.44,12.3125,158.8125,-46.1875
78530,-8.89,-0.66,-0.59,-75.25,-99.75,5.9375,-11.31,-0.44,2.44,-176.625,124.4375,-29.3125
78627,-8.89,2.16,-0.53,-81.625,-69.5625,-0.125,-5.91,-0.47,0.75,-93.0625,69.3125,-8.0
78730,-9.18,1.43,0.67,-22.125,-60.75,-17.0625,-5.0,1.55,-1.35,58.6875,-3.3125,-11.0
78831,-9.05,1.37,1.67,-20.0,-52.5625,-2.75,-14.12,-1.59,-7.85,-45.0,-65.0625,1.9375
78929,-11.61,2.05,1.46,-64.0,-34.8125,-6.1875,-11.14,3.1,-1.0,-67.375,-52.8125,7.75
79027,-12.54,-0.48,0.05,-45.625,60.6875,6.0625,-9.41,-2.92,-2.1,31.875,-57.4375,-23.375
79129,-12.87,1.8,2.19,3.9375,169.6875,44.4375,-11.17,-2.91,-0.14,5.5625,-60.25,1.0
79231,-11.82,2.41,0.84,139.375,146.625,37.5,-10.23,-1.17,-0.8,21.3125,-38.375,-14.4375
79329,-6.44,-0.08,-0.58,92.5625,107.875,27.375,-9.09,-1.87,1.63,50.125,-35.0,-9.75
79427,-4.37,-0.97,-1.52,29.5625,16.6875,4.875,-9.3,-1.3,1.96,27.5625,-49.5,-1.5625
79528,-10.07,1.77,-6.12,19.5,-76.0625,-21.5,-9.87,-1.88,2.32,59.625,-50.0625,5.0625
79626,-9.48,1.33,-5.25,43.625,-5.1875,22.5625,-11.74,-0.36,2.85,52.125,-31.4375,1.8125
79731,-6.21,-0.6,-3.58,16.6875,28.8125,36.375,-12.65,-0.23,0.09,21.9375,21.4375,-7.5625
79829,-8.42,1.95,3.52,-55.125,-83.4375,16.75,-11.42,-0.99,2.04,-12.3125,181.125,4.3125
79933,-9.37,1.28,-0.55,-38.8125,-84.3125,7.625,-11.5,-2.49,3.24,-129.4375,142.75,-27.0625
80026,-9.04,0.95,-0.1,-54.25,-81.3125,-0.625,-7.21,0.04,0.59,-110.875,119.0,-17.75
80132,-8.78,1.58,0.61,-76.75,-74.25,-6.1875,-5.53,1.64,-0.25,-2.8125,23.5,-23.125
80228,-8.9,1.9,1.46,-8.6875,-53.1875,-12.9375,-8.98,-1.93,-3.15,-37.5,-55.875,12.375
80330,-10.96,1.67,3.05,-58.4375,-39.0625,-5.75,-10.88,-2.28,-5.27,14.4375,-20.9375,-12.125
80429,-11.27,1.3,-0.18,-58.25,-10.4375,5.0,-12.06,-1.03,-1.05,-71.5,-94.1875,-13.875
80527,-10.02,-0.74,-0.27,-28.5625,151.8125,8.5625,-8.52,-0.51,3.89,8.125,-65.5,6.1875
80631,-13.06,2.48,1.81,101.1875,156.625,57.625,-8.8,-0.49,3.6,31.625,-59.0,-22.375
80730,-9.0,0.93,0.62,134.0,133.4375,47.6875,-8.82,-0.34,1.11,96.9375,-28.625,-24.0
80830,-4.82,-0.66,-0.02,70.5625,48.375,19.6875,-8.8,-1.59,2.19,56.6875,-39.125,-0.8125
80927,-5.92,0.63,-3.64,1.5625,-46.125,-26.1875,-8.84,-0.37,1.12,14.625,-65.8125,5.6875
81030,-11.1,2.34,-7.43,-9.375,5.5,1.6875,-10.72,-1.93,3.75,42.6875,-45.5,0.3125
81128,-13.32,0.28,-4.83,68.5,-27.3125,-5.125,-13.3,-4.5,2.72,48.75,-22.5625,7.6875
81229,-3.15,-5.49,4.87,-66.5,-19.5625,13.125,-10.25,2.39,0.05,30.1875,111.25,-5.3125
81330,-9.09,1.22,-1.14,14.6875,-72.0625,-5.25,-13.62,-3.02,4.53,-5.4375,162.5625,-39.75
81428,-8.97,1.18,0.06,-50.0,-92.125,12.75,-10.17,-0.01,0.89,-140.5,129.4375,-17.875
81527,-8.78,0.35,0.05,-76.0625,-81.4375,-4.875,-5.17,-0.32,1.96,-74.125,67.625,-0.9375
81629,-8.89,1.46,0.58,-28.6875,-70.875,-22.0,-5.24,-0.63,-2.02,65.875,-8.3125,8.875
81731,-10.08,0.95,1.51,-35.5,-56.5,-3.75,-13.64,-1.25,-8.19,-38.6875,-47.75,-8.8125
81828,-12.69,2.9,1.65,-52.1875,-24.125,-0.5625,-10.24,1.96,-0.16,-71.8125,-36.25,6.0625
81931,-10.51,-0.76,-1.0,-46.9375,88.25,1.8125,-7.73,-1.97,4.35,24.75,-59.0625,-24.0
82029,-13.33,2.41,1.88,17.8125,163.6875,53.875,-9.63,-2.2,0.68,9.25,-64.625,0.625
82131,-11.96,-0.39,0.41,151.6875,135.4375,29.3125,-9.02,-0.47,0.29,34.625,-34.75,-17.0625
82231,-5.67,0.79,-0.17,69.875,108.0,35.875,-9.21,-2.13,1.48,72.5625,-42.1875,-3.75
82327,-4.15,-0.76,-1.29,39.5,7.75,1.375,-8.27,0.01,2.3,17.4375,-56.75,0.3125
82431,-11.86,1.56,-6.89,-1.875,-89.5,-17.3125,-8.79,-1.97,3.77,41.5625,-51.1875,6.9375
82529,-8.15,0.92,-6.58,30.6875,32.25,25.75,-10.16,0.6,4.13,42.6875,-47.625,11.375
82626,-7.17,-0.12,-6.84,64.5625,5.5,29.9375,-13.39,-0.61,0.7,11.1875,-9.125,-6.0
82727,-15.08,4.94,-1.25,-77.125,-56.8125,24.3125,-11.1,-0.47,0.76,-0.25,179.125,2.9375
82830,-9.26,3.6,-0.54,-39.1875,-86.375,-2.8125,-11.91,-2.7,3.6,-54.75,157.375,-53.6875
82927,-9.36,0.77,-0.45,-77.0625,-92.5625,4.25,-8.63,0.75,0.86,-123.625,128.25,-26.875
83029,-8.69,1.87,-0.05,-83.1875,-79.1875,-9.0625,-5.86,0.55,0.48,-53.625,38.5625,-10.6875
83127,-8.95,1.95,0.98,-37.8125,-63.75,-18.875,-7.14,-1.94,-1.72,-14.4375,-31.5625,14.25
83230,-9.2,1.05,2.86,-38.0625,-46.5625,-3.25,-11.65,-0.94,-6.09,13.1875,-12.875,-12.875
83329,-12.7,3.46,1.73,-55.125,-28.875,-7.1875,-11.86,2.04,-1.17,-70.9375,-70.5625,4.4375
83430,-10.92,-0.96,0.2,-57.5,71.625,8.125,-8.06,-1.7,0.24,11.5,-55.4375,-16.0625
83528,-13.3,3.13,2.37,-2.25,168.875,53.4375,-10.87,-3.66,0.43,27.8125,-62.0625,1.8125
83632,-11.49,0.97,0.75,173.75,143.5,36.375,-9.25,0.0,-0.41,46.4375,-27.6875,-22.5625
83735,-6.21,0.83,0.0,90.8125,117.625,39.25,-9.64,-2.52,1.4,62.625,-39.0625,-5.5625
83832,-4.04,-1.57,-1.41,23.5,7.9375,4.25,-8.84,-0.13,2.25,23.6875,-55.8125,-0.8125
83937,-12.63,2.62,-8.28,20.9375,-89.6875,-23.3125,-9.36,-1.86,2.97,48.3125,-49.4375,4.0625
84037,-8.56,0.87,-5.28,48.4375,-5.9375,20.0625,-13.23,-3.42,3.09,64.6875,-32.4375,3.9375
84131,-8.23,-0.32,-6.07,65.375,24.9375,34.0,-12.75,-0.38,1.68,37.875,13.4375,-4.375
84236,-9.13,3.3,3.41,-85.5625,-97.5625,14.3125,-11.73,-1.79,2.19,4.8125,179.6875,11.5625
84330,-9.47,2.56,-0.82,-50.5625,-92.3125,3.5625,-11.24,-1.8,3.21,-89.75,146.5,-33.5625
84433,-9.26,0.69,0.39,-63.125,-82.75,-1.5,-7.07,-0.05,0.78,-117.4375,123.1875,-22.1875
84536,-8.9,2.39,0.87,-87.625,-80.375,-14.0,-5.31,1.58,1.54,-40.375,20.0,-10.75
84632,-8.77,2.3,0.4,-1.5,-65.125,-17.0,-8.81,-2.5,-3.09,-16.375,-48.125,11.375
84731,-10.34,0.33,3.09,-57.25,-34.125,0.0,-10.25,-0.91,-4.53,38.4375,15.0,-18.5
84838,-11.3,1.93,0.99,-52.875,-1.8125,8.0625,-11.84,-0.15,0.99,-64.0,-93.3125,-10.1875
84930,-10.51,-1.17,-1.13,-5.8125,117.875,-2.625,-5.51,0.7,3.65,27.125,-49.75,-31.75
85035,-12.04,3.89,2.74,69.75,154.5625,50.25,-9.41,-1.7,2.07,33.0,-55.75,-21.4375
85136,-11.29,-0.31,0.42,130.4375,145.1875,31.75,-9.25,-0.34,1.05,73.6875,-33.6875,-16.0
85228,-6.19,0.5,0.4,74.25,103.4375,19.0,-8.82,-2.22,1.71,49.0625,-42.25,-8.6875
85332,-3.93,0.12,-1.97,20.8125,7.75,-2.125,-9.34,-0.62,1.98,13.875,-64.5625,4.5
85428,-13.0,2.06,-8.7,10.25,-46.25,-3.25,-9.62,-2.27,3.82,49.4375,-41.625,2.4375
85530,-11.16,-0.5,-4.94,71.4375,-13.375,17.0,-12.59,-3.03,5.03,52.5625,-35.8125,9.375
85630,-8.47,-0.98,-5.45,1.75,51.0,24.0,-12.11,-1.16,2.27,60.75,29.25,-5.6875
85728,-10.16,0.25,0.74,-47.375,-91.125,11.0625,-11.4,-1.04,2.6,-1.8125,179.6875,4.1875
85831,-9.27,2.08,-1.17,-46.25,-98.8125,7.0,-11.41,-2.91,3.23,-126.9375,134.0625,-26.75
85929,-9.21,1.25,0.32,-70.9375,-86.875,-0.875,-7.75,-0.23,0.7,-117.8125,128.9375,-14.0
86030,-8.68,2.29,0.91,-96.625,-78.9375,-9.625,-6.15,1.28,0.66,-30.625,54.4375,-7.125
86131,-9.64,2.54,0.43,-11.4375,-58.5,-12.5625,-7.11,-1.9,-2.12,-19.5,-17.3125,14.0625
86226,-11.27,0.68,2.13,-80.0625,-38.0625,-4.75,-13.01,-1.2,-6.55,33.6875,-55.0625,-16.1875
86333,-11.51,2.04,0.04,-43.6875,-4.6875,2.0625,-10.24,-0.3,0.58,-65.1875,-105.6875,-7.6875
86428,-10.38,-0.7,-0.52,-15.75,141.0,1.6875,-9.16,-1.01,3.22,6.125,-49.9375,-14.1875
86530,-12.07,1.51,2.07,90.875,145.8125,53.1875,-9.67,-1.16,2.76,37.0625,-64.625,-15.3125
86629,-10.24,0.46,0.68,128.0625,141.375,39.4375,-8.53,-0.68,1.46,80.5,-31.0,-17.5625
86728,-5.08,-0.56,-0.38,70.8125,74.5,16.4375,-8.7,-1.91,1.4,30.5,-39.1875,-8.75
86826,-5.99,1.28,-2.8,10.0625,-12.125,-15.375,-8.9,-0.42,2.11,5.5,-60.75,1.9375
86929,-10.48,1.91,-7.14,7.125,-9.75,3.6875,-9.94,-1.01,3.57,48.5625,-49.3125,4.0
87029,-7.62,-0.21,-5.95,70.75,-6.4375,19.1875,-10.59,-1.36,3.47,70.25,-46.3125,8.875
87130,-2.42,-2.16,-1.08,30.375,70.75,41.375,-13.1,-0.12,1.26,45.1875,35.375,-8.375
87228,-9.4,2.11,2.18,-66.375,-101.0,17.125,-11.37,-1.38,2.71,-22.875,192.625,1.3125
87326,-9.13,2.75,-1.02,-48.1875,-91.875,-0.125,-11.69,-2.18,3.56,-128.125,147.3125,-28.4375
87432,-8.76,0.15,-0.12,-67.5,-90.5,-2.6875,-6.66,0.75,0.52,-104.0625,125.5625,-13.8125
87527,-8.44,2.48,1.16,-75.0,-86.0625,-16.125,-5.48,1.77,-0.03,6.1875,27.8125,-7.3125
87630,-9.49,2.99,0.18,-18.0,-63.8125,-10.25,-7.96,-2.7,-3.3,-60.125,-46.6875,7.0
87729,-11.18,1.14,2.84,-66.25,-32.75,-2.6875,-11.42,-2.02,-4.23,3.5,-42.375,-19.5
87827,-12.21,1.67,0.58,-45.0,-5.125,5.9375,-12.88,-1.35,-0.58,-21.125,-130.25,-19.0625
87925,-9.68,-0.42,-0.76,-6.0,150.6875,1.625,-6.9,-2.11,3.89,18.875,-52.6875,-6.0625
88029,-12.54,3.17,2.51,124.0625,154.8125,57.6875,-9.63,0.37,2.53,28.5,-62.4375,-12.0
88129,-10.06,0.2,0.06,103.125,148.4375,37.3125,-8.93,-1.59,2.11,97.5,-32.5,-19.5
88226,-5.04,0.02,0.23,81.5625,76.8125,13.6875,-8.32,-1.06,1.88,45.5625,-42.875,-7.75
88328,-4.51,0.33,-3.0,28.5,-7.3125,-19.6875,-8.82,-1.29,2.43,15.0625,-62.1875,3.3125
88428,-10.72,2.59,-7.78,9.4375,-5.5625,7.6875,-10.34,-0.76,4.04,60.75,-45.4375,2.3125
88525,-11.7,-2.68,-5.65,62.0625,-40.375,20.75,-12.01,-2.82,2.84,74.0,-41.625,7.875
88630,-1.32,-3.76,3.17,-56.75,13.0625,32.1875,-11.06,1.26,0.08,52.625,78.875,-13.75
88725,-10.91,1.43,-0.62,25.0625,-95.25,12.125,-13.21,-4.24,6.29,-6.375,179.5,-32.375
88829,-9.54,2.98,-0.38,-70.6875,-97.1875,4.6875,-11.78,0.33,2.21,-200.6875,144.0,-26.8125
88928,-9.17,0.88,0.01,-82.375,-87.75,-2.3125,-5.7,0.53,1.48,-75.9375,96.75,-15.4375
89026,-8.54,1.93,1.93,-54.6875,-83.4375,-18.75,-5.24,0.31,-0.73,27.1875,8.8125,12.0
89128,-9.71,2.65,1.34,-24.5625,-59.625,-4.5,-10.42,-1.08,-5.33,-27.5,-41.875,-5.5
89227,-11.68,1.12,2.36,-61.5625,-39.75,-6.8125,-11.08,-0.09,-4.52,-37.875,-65.0625,-0.1875
89331,-12.9,1.83,1.29,-50.375,8.375,0.5,-14.48,1.71,-6.43,-38.875,-125.3125,-30.625
89430,-9.68,1.17,0.57,-40.0,139.625,-4.0625,-9.45,-3.18,3.28,41.0,-71.25,6.0625
89527,-12.07,1.16,2.2,148.0,145.0625,51.625,-9.63,-0.72,3.39,46.875,-65.25,-19.375
89629,-10.71,1.71,0.56,69.875,144.4375,37.1875,-8.56,-1.23,2.3,89.8125,-38.0625,-18.4375
89731,-6.11,-0.22,-0.25,100.8125,82.6875,13.25,-9.35,-0.9,2.19,34.625,-45.25,-4.0625
89827,-4.48,-0.04,-2.58,9.375,-17.3125,-3.75,-8.97,-0.72,3.18,36.125,-61.9375,3.9375
89930,-12.59,1.46,-7.8,8.0,-38.75,5.5,-9.96,-1.02,3.83,48.4375,-39.75,8.125
90028,-13.04,-0.57,-5.08,48.0625,-26.875,8.9375,-13.04,-2.81,3.77,34.875,-28.5,8.3125
