time_ms,left_accel_x,left_accel_y,left_accel_z,left_gyro_x,left_gyro_y,left_gyro_z,right_accel_x,right_accel_y,right_accel_z,right_gyro_x,right_gyro_y,right_gyro_z
65,-0.983,0.119,0.051,0.12778,-0.01889,-0.01,-0.996,-0.037,0.091,0.13444,0.00222,-0.02333
164,-0.987,0.095,0.076,0.00222,0.02,0.00333,-0.996,-0.047,0.075,-0.02889,0.00667,-0.00333
264,-0.981,0.15,0.041,-0.03667,0.00667,-0.00333,-0.996,0.003,0.102,-0.03444,0.00333,-0.00111
364,-0.991,0.13,0.048,0.07222,-0.01444,-0.01,-0.999,-0.016,0.094,0.08333,0.00333,-0.00778
466,-0.979,0.112,0.065,0.05667,-0.01444,-0.00667,-1.0,-0.075,0.045,-0.07,-0.01,0.00333
568,-0.984,0.119,0.045,0.03222,0.0,0.00556,-0.983,0.021,0.08,-0.08222,-0.02111,0.0
663,-0.987,0.129,0.054,0.06778,-0.02,-0.00444,-1.002,-0.03,0.074,0.08556,0.01889,-0.00444
768,-0.981,0.119,0.063,-0.00889,-0.01333,-0.00111,-0.989,-0.021,0.089,0.03222,-0.01,0.01111
863,-0.98,0.125,0.058,-0.01,-0.00333,0.00111,-0.999,-0.008,0.083,-0.03667,-0.01667,0.00333
967,-0.988,0.121,0.057,-0.01,-0.00556,0.0,-0.998,-0.022,0.093,0.02,-0.00111,0.00111
1065,-0.986,0.125,0.066,-0.02333,-0.00667,0.0,-0.994,-0.008,0.093,-0.03444,-0.00778,0.00333
1166,-0.985,0.125,0.057,-0.03,-0.00667,0.0,-1.0,-0.02,0.092,-0.01,-0.00444,0.00556
1265,-0.984,0.128,0.052,-0.02444,-0.00556,0.0,-0.997,-0.007,0.096,-0.04222,-0.01333,0.00444
1366,-0.987,0.127,0.06,-0.00889,-0.00333,0.00111,-1.0,-0.022,0.098,0.00778,0.00111,0.0
1466,-0.981,0.124,0.071,-0.01,-0.01,0.0,-0.997,-0.017,0.095,-0.01889,-0.00778,0.00222
1564,-0.982,0.125,0.062,-0.00556,0.00111,0.0,-1.0,-0.015,0.094,-0.01778,0.0,0.00111
1666,-0.987,0.127,0.054,0.01111,-0.00889,0.0,-0.998,-0.015,0.092,-0.01333,-0.01111,0.00333
1765,-0.985,0.125,0.063,0.0,0.0,0.00111,-0.995,-0.012,0.093,0.01111,0.0,0.0
1865,-0.982,0.127,0.062,-0.01,-0.00222,0.0,-0.997,-0.012,0.094,-0.01222,0.0,0.0
1965,-0.984,0.126,0.061,-0.00778,0.00556,0.00222,-0.994,-0.009,0.096,0.00444,0.01222,-0.00444
2065,-0.982,0.125,0.059,0.00111,0.0,0.0,-0.997,-0.01,0.093,0.0,-0.00333,0.0
2156,-0.981,0.122,0.054,0.00222,0.00111,-0.00111,-0.994,-0.02,0.089,-0.01111,-0.00333,0.0
2266,-0.984,0.123,0.058,-0.01444,0.00556,-0.00222,-0.997,-0.014,0.092,0.0,0.0,0.00111
2366,-0.982,0.119,0.062,0.00556,0.0,0.00111,-0.996,-0.011,0.096,-0.00111,-0.01,0.0
2464,-0.987,0.124,0.057,-0.02222,-0.00556,-0.00111,-0.996,-0.023,0.095,-0.01222,-0.00333,0.00444
2563,-0.983,0.127,0.061,-0.00889,0.0,0.00444,-0.996,-0.016,0.097,0.0,-0.00222,0.0
2663,-0.986,0.128,0.053,0.00333,0.0,0.00444,-0.998,-0.011,0.096,0.00444,0.00222,0.0
2765,-0.985,0.129,0.061,0.01333,-0.00333,0.00222,-0.996,-0.012,0.094,0.00667,0.00222,0.0
2863,-0.985,0.124,0.062,0.01333,0.00333,0.00111,-0.995,-0.011,0.09,0.01778,0.00667,-0.00222
2962,-0.982,0.122,0.062,-0.00444,0.00333,0.00333,-0.995,-0.021,0.093,0.00111,0.0,0.0
3063,-0.984,0.128,0.056,-0.01,-0.00333,0.0,-0.997,-0.011,0.095,0.0,-0.00111,0.00222
3163,-0.982,0.123,0.061,-0.01,-0.00111,0.0,-0.992,-0.016,0.093,0.00333,-0.00333,0.00333
3266,-0.985,0.124,0.048,-0.01333,0.0,0.0,-1.001,-0.012,0.088,-0.01,0.01222,-0.00111
3362,-0.982,0.127,0.059,-0.00222,0.00111,0.0,-0.995,-0.015,0.104,0.0,0.00444,-0.00333
3466,-0.984,0.121,0.057,0.01222,0.00111,0.00222,-0.998,-0.016,0.089,0.01,-0.00111,0.0
3563,-0.983,0.126,0.05,0.00111,-0.00556,0.0,-0.998,-0.019,0.091,-0.02111,-0.00667,0.00333
3663,-0.977,0.137,0.061,-0.01889,-0.03111,0.0,-0.994,-0.01,0.091,0.01778,0.00889,-0.00333
3767,-0.991,0.127,0.064,0.02333,-0.02667,-0.00111,-1.001,-0.022,0.091,-0.00556,-0.00667,0.0
3865,-0.987,0.12,0.059,-0.00667,0.00333,0.0,-0.996,-0.02,0.091,0.00889,0.00778,-0.00111
3964,-0.984,0.126,0.062,-0.03,0.01889,0.00333,-0.998,-0.014,0.09,-0.01556,0.00333,0.00222
4066,-0.98,0.126,0.06,-0.02556,0.01111,0.00444,-0.995,-0.011,0.098,-0.01556,-0.00111,0.00111
4163,-0.983,0.127,0.054,-0.00111,0.00667,0.0,-1.0,-0.011,0.092,-0.00333,-0.00222,0.00222
4268,-0.984,0.124,0.051,0.01111,0.00556,0.0,-0.995,-0.01,0.091,0.01222,0.00667,0.0
4364,-0.985,0.125,0.05,0.01,-0.00222,0.0,-0.998,-0.021,0.091,0.0,-0.00111,-0.00111
4466,-0.986,0.126,0.05,-0.00667,-0.00222,0.0,-0.998,-0.019,0.088,0.00556,0.0,0.0
4566,-0.981,0.134,0.053,-0.01,-0.00778,0.0,-0.988,-0.006,0.092,0.0,-0.01,0.0
4672,-0.984,0.12,0.059,0.00556,0.0,0.0,-0.996,-0.019,0.086,0.0,-0.00111,0.0
4766,-0.983,0.126,0.056,-0.00778,0.00333,0.00111,-0.997,-0.018,0.091,-0.02,-0.00111,0.0
4872,-0.985,0.133,0.056,-0.00667,-0.00111,0.0,-0.992,-0.013,0.093,-0.00333,-0.00667,0.0
4966,-0.982,0.123,0.057,0.0,-0.00222,0.0,-0.994,-0.015,0.092,0.0,0.0,0.00111
5066,-0.985,0.128,0.055,0.00333,-0.00111,0.0,-0.995,-0.019,0.091,0.00111,0.00333,0.0
5167,-0.983,0.127,0.052,0.01667,-0.00444,-0.00111,-0.995,-0.015,0.09,0.0,-0.00333,0.0
5265,-0.984,0.123,0.062,0.00444,0.00222,0.00222,-0.995,-0.018,0.089,0.00778,0.00333,0.00222
5366,-0.984,0.13,0.047,-0.01111,-0.00556,0.0,-0.997,-0.017,0.094,-0.01889,-0.01111,0.00333
5465,-0.982,0.128,0.047,0.00111,-0.00667,-0.00222,-1.0,-0.017,0.087,0.00333,-0.00444,0.00333
5568,-0.982,0.126,0.054,-0.01333,0.00111,0.0,-0.994,-0.014,0.09,-0.00778,-0.00556,0.0
5671,-0.981,0.127,0.054,0.0,-0.00222,0.0,-0.997,-0.017,0.093,0.0,0.0,0.00111
5765,-0.984,0.129,0.052,0.01222,-0.00667,0.0,-1.0,-0.015,0.091,0.0,-0.00444,0.0
5864,-0.984,0.127,0.052,0.00889,-0.00667,0.0,-0.998,-0.02,0.09,0.0,-0.00556,0.00222
5969,-0.984,0.122,0.058,0.0,-0.00222,0.0,-0.996,-0.018,0.094,-0.00222,-0.00444,0.00333
6063,-0.981,0.125,0.053,-0.01444,0.0,0.00111,-0.996,-0.009,0.095,-0.00333,-0.01,0.00222
6163,-0.987,0.121,0.058,0.00222,-0.00667,0.00111,-0.993,-0.011,0.092,0.01,-0.00444,0.0
6263,-0.981,0.123,0.054,-0.01,-0.00556,0.0,-1.0,-0.018,0.09,-0.01333,-0.01,0.0
6366,-0.984,0.126,0.055,-0.00889,0.0,0.00111,-0.993,-0.015,0.095,0.01222,-0.00111,0.0
6461,-0.987,0.121,0.061,-0.00333,-0.00222,0.00222,-0.997,-0.011,0.099,-0.00556,-0.00556,0.0
6562,-0.983,0.12,0.059,-0.00667,0.00556,0.0,-0.994,-0.008,0.096,0.01222,0.00444,0.0
6663,-0.972,0.131,0.057,0.02333,-0.01111,-0.00222,-0.984,0.001,0.104,0.03889,-0.01111,-0.00222
6755,-0.982,0.128,0.06,0.02111,-0.01,-0.00222,-0.996,-0.003,0.09,0.00667,0.01,-0.00444
6859,-0.988,0.12,0.042,0.04333,0.00778,0.00111,-1.006,-0.023,0.092,0.05222,0.02889,-0.00222
6961,-0.986,0.103,0.072,-0.01333,0.0,0.00556,-0.993,-0.036,0.084,-0.01222,-0.00778,0.0
7063,-0.981,0.12,0.058,-0.09778,0.00778,0.01,-0.989,-0.029,0.099,-0.13889,-0.02556,0.01667
7167,-0.981,0.117,0.05,-0.16889,0.03667,0.02222,-0.998,-0.029,0.083,-0.19,-0.04556,0.03111
7265,-0.977,0.142,0.03,-0.16778,0.00556,0.00667,-0.992,0.012,0.098,-0.08778,-0.01444,0.02556
7364,-0.972,0.149,0.039,0.05,-0.04667,0.0,-0.992,0.024,0.117,0.02556,-0.02111,-0.00333
7462,-0.987,0.134,0.064,0.16667,-0.04333,0.0,-1.0,0.002,0.118,0.14778,-0.00667,-0.01333
7564,-0.979,0.132,0.083,0.16,-0.04222,-0.01333,-0.995,0.002,0.114,0.16778,0.03222,-0.01889
7662,-0.986,0.125,0.081,0.13889,-0.02889,-0.02,-0.995,-0.02,0.091,0.12556,0.00889,-0.01778
7759,-0.988,0.108,0.075,-0.02444,0.03667,-0.00111,-1.001,-0.04,0.075,-0.03111,0.01,-0.00667
7862,-0.985,0.125,0.056,-0.11,0.04222,0.00778,-0.995,-0.022,0.097,-0.11667,0.02222,-0.00222
7962,-0.981,0.13,0.044,-0.03556,0.02222,0.00778,-0.992,0.004,0.102,-0.03889,0.02111,0.0
8065,-0.983,0.125,0.059,0.01333,0.00333,0.0,-0.999,-0.015,0.087,-0.02222,0.00889,-0.00222
8166,-0.983,0.132,0.056,-0.02333,0.01,0.00111,-0.996,-0.013,0.091,-0.01222,0.01444,0.0
8264,-0.979,0.133,0.047,0.02222,0.0,0.0,-0.996,-0.004,0.093,0.00778,0.00444,-0.00222
8365,-0.985,0.121,0.051,0.03111,-0.00556,-0.00556,-0.994,-0.024,0.089,0.02222,-0.00333,-0.00222
8454,-0.986,0.127,0.048,-0.02556,-0.00333,0.0,-1.001,-0.015,0.089,-0.00333,-0.01333,0.00444
8563,-0.981,0.128,0.05,-0.01444,-0.00111,0.00222,-0.994,-0.005,0.093,0.0,-0.01,0.00111
8665,-0.982,0.123,0.055,0.0,-0.01111,0.0,-0.996,-0.012,0.093,0.00444,-0.00667,-0.00111
8763,-0.988,0.125,0.055,-0.00889,-0.00222,0.0,-0.995,-0.014,0.098,-0.00667,-0.00667,0.00444
8864,-0.984,0.127,0.059,-0.00333,-0.00111,0.0,-1.0,-0.011,0.094,0.0,-0.00222,0.0
8961,-0.984,0.13,0.053,0.00333,0.0,-0.00333,-0.998,-0.016,0.093,-0.00222,-0.00667,0.0
9065,-0.979,0.127,0.055,-0.01222,0.00222,0.00111,-0.985,-0.008,0.096,0.00778,-0.00333,0.0
9160,-0.978,0.13,0.066,-0.03111,-0.06,-0.01111,-0.983,0.0,0.11,-0.01222,-0.06889,0.0
9266,-1.005,0.119,0.095,-0.02111,-0.12222,-0.03222,-1.008,-0.019,0.134,0.01667,-0.11333,0.01444
9362,-1.0,0.162,0.103,-0.11889,0.03778,-0.03111,-0.998,0.03,0.138,-0.05667,-0.08778,-0.02222
9466,-0.957,0.141,0.141,-0.05,0.03111,-0.03889,-0.972,0.017,0.183,-0.01444,-0.08222,-0.05333
9568,-0.977,0.155,0.108,-0.02667,0.00778,-0.09222,-0.987,0.012,0.161,-0.12444,-0.17444,-0.05889
9665,-0.972,0.132,0.038,0.07556,0.22,-0.06,-0.974,-0.018,0.174,-0.12889,-0.14,-0.08333
9756,-0.997,0.144,0.005,0.04333,0.54222,0.08667,-0.977,-0.016,0.183,-0.35333,-0.20333,-0.08333
9863,-1.102,0.166,-0.13,0.37111,0.91889,0.15889,-0.977,-0.079,0.241,-0.02444,-0.14556,-0.03111
9965,-1.07,-0.025,-0.21,0.34556,1.47333,0.24667,-1.009,-0.114,0.196,-0.22,-0.17111,-0.02
10064,-0.891,0.082,-0.191,0.77889,0.66556,0.09889,-1.0,-0.124,0.182,0.41,-0.06333,-0.04444
10159,-0.793,0.11,-0.245,0.13111,-0.25556,0.07889,-0.983,-0.132,0.232,-0.08889,-0.09667,0.03889
10263,-0.826,-0.015,-0.3,-0.05222,-0.87556,-0.08444,-0.994,-0.064,0.194,0.01667,-0.20556,0.07889
10365,-0.971,0.172,-0.379,-0.29667,-0.67222,-0.14556,-0.977,-0.101,0.138,0.18222,-0.27667,0.11778
10466,-1.117,0.009,-0.306,-0.23444,-0.31222,-0.01222,-1.122,-0.168,0.156,0.26333,-0.33444,0.1
10567,-0.913,-0.004,-0.3,-0.16889,-0.10111,0.33444,-1.049,0.11,0.3,0.33,0.02222,0.00222
10665,-0.963,0.193,-0.102,0.26444,-0.45556,0.11556,-1.051,0.018,0.088,0.55889,0.46111,0.04
10764,-0.932,0.102,0.072,-0.05333,-0.67667,0.11222,-1.02,-0.007,0.018,0.08444,1.50333,-0.1
10867,-0.984,0.248,0.077,-0.47,-0.38667,0.08,-1.074,-0.052,0.207,-0.15,1.47222,-0.27222
10962,-0.977,0.194,0.086,-0.27667,-0.14,0.09556,-1.093,0.006,0.036,-0.86444,1.08667,-0.58333
11065,-0.947,0.163,0.139,-0.25444,-0.18111,0.01444,-0.91,0.089,0.022,-0.84111,0.69333,-0.16778
11164,-0.973,0.27,0.09,-0.03556,-0.4,-0.07778,-0.804,0.082,-0.14,0.23,0.07111,0.09333
11264,-0.987,0.254,0.026,-0.1,-0.21444,-0.02778,-0.93,-0.237,-0.322,0.09889,-0.61778,0.09
11364,-0.911,0.204,0.09,-0.40111,-0.13,-0.04,-0.909,0.057,-0.214,-0.08889,-0.6,-0.16333
11463,-1.05,0.298,0.106,-0.20889,0.14,0.17778,-1.168,-0.188,-0.297,-0.54444,-1.15111,-0.07778
11567,-1.082,0.197,0.124,-0.34556,0.5,0.11222,-0.99,-0.131,0.063,-0.45444,-0.53889,-0.03
11662,-1.117,0.009,-0.078,0.29,1.52,0.02111,-0.993,-0.092,0.196,-0.27333,-0.54667,-0.04
11765,-1.136,0.262,0.007,-0.21111,1.99222,-0.01,-1.041,-0.083,0.058,-0.27667,-0.31778,-0.06667
11868,-0.909,0.121,-0.133,1.13667,0.88444,0.28111,-0.971,-0.127,0.131,0.29778,-0.07556,-0.12889
11965,-0.744,0.073,-0.26,0.64,0.40222,0.23111,-0.992,-0.133,0.161,0.04,-0.20889,0.00889
12062,-0.774,0.049,-0.253,0.03333,-0.44889,-0.05444,-0.994,-0.083,0.142,0.03333,-0.29333,0.00667
12164,-0.924,0.228,-0.392,-0.20556,-0.82778,-0.31444,-0.982,-0.109,0.111,0.06889,-0.32333,0.01778
12261,-1.02,0.124,-0.486,-0.02333,-0.34444,-0.01667,-0.942,-0.15,0.11,0.35556,-0.41667,0.05667
12362,-0.978,0.125,-0.299,0.31556,-0.56,0.07444,-1.023,-0.145,0.172,0.79,-0.46778,0.02778
12461,-1.309,0.144,-0.325,1.75222,-0.62,0.08556,-1.137,-0.111,0.188,0.80444,0.08778,-0.01333
12568,-1.009,0.253,-0.061,0.06778,-0.67111,-0.05333,-1.041,0.004,-0.024,0.65889,1.00556,0.00222
12663,-0.952,0.069,0.134,0.14556,-0.77667,0.05889,-1.033,0.093,0.153,-0.32889,1.92,0.09556
12763,-1.034,0.337,0.09,-0.99778,-0.16,0.12667,-1.095,-0.12,0.092,-0.17222,0.97556,-0.07111
12867,-0.9,0.205,0.118,-0.57667,-0.23667,0.16444,-0.838,-0.032,0.024,-1.47,0.22889,-0.33222
12964,-0.96,0.145,0.107,-0.12889,-0.34,-0.01333,-0.937,0.078,-0.104,-1.11,0.23,-0.30111
13063,-0.963,0.177,0.093,-0.21889,-0.33111,-0.02111,-0.903,-0.028,-0.188,0.49778,0.26667,0.00556
13164,-0.979,0.205,0.104,-0.18333,-0.38889,-0.04222,-0.925,-0.111,-0.237,-0.43333,-0.11444,-0.12222
13258,-0.955,0.185,0.101,-0.38222,-0.33,-0.05556,-0.98,0.036,-0.318,0.03778,-0.19889,-0.22889
13363,-1.037,0.309,0.092,-0.65444,-0.29111,-0.02778,-1.154,-0.004,-0.161,-0.28556,-0.82778,0.07
13465,-1.213,0.146,0.093,-0.38889,0.52889,0.15556,-0.765,0.215,-0.19,-1.53,-0.13444,-0.22111
13563,-1.094,-0.06,-0.001,-0.11222,2.16667,-0.03,-0.989,-0.25,0.102,0.57,-0.55667,0.09333
13662,-1.211,0.438,0.12,1.10667,1.91556,0.61333,-1.091,0.0,-0.048,-0.72,-0.60444,-0.22
13758,-0.896,0.025,-0.161,1.22,1.20333,0.51333,-0.969,-0.181,0.137,1.09667,-0.23889,-0.14778
13864,-0.682,0.021,-0.134,1.08889,0.27222,0.26333,-0.948,-0.106,0.141,0.04444,-0.47889,-0.03
13961,-0.659,-0.007,-0.333,-0.38333,-0.68111,-0.13556,-1.009,-0.107,0.098,0.22,-0.56667,0.02556
14063,-1.248,0.402,-0.724,0.65667,-0.58444,-0.14222,-0.946,-0.181,0.109,0.33222,-0.40222,0.01
14167,-0.752,0.131,-0.447,0.63778,-0.26778,0.29,-0.952,-0.045,0.189,0.77889,-0.34556,-0.02778
14265,-1.392,0.431,-0.585,1.40333,-0.02,-0.03111,-1.317,-0.302,0.03,0.34444,0.27222,0.02889
14362,-1.047,0.422,0.043,-0.57667,-0.86778,-0.04667,-1.037,0.333,0.025,0.04667,2.21556,0.26444
14462,-0.949,0.082,-0.044,-0.17222,-1.01333,-0.07222,-1.159,-0.399,0.23,0.77333,2.01889,-0.39889
14562,-0.906,0.264,0.124,-1.09222,-0.78,-0.02444,-0.856,-0.119,-0.039,-1.74111,1.09778,-0.28
14664,-1.018,0.394,-0.05,0.12556,-0.58111,0.02667,-0.778,0.09,0.1,-1.31333,0.07556,-0.47444
14761,-0.929,0.104,0.103,-0.23,-0.42444,-0.14111,-0.793,-0.072,-0.239,1.32667,-0.41778,-0.08
14855,-0.958,0.113,0.016,-0.19778,-0.65333,-0.03,-1.352,-0.203,-0.797,-1.28111,-0.86889,-0.04111
14963,-0.974,0.179,0.02,-1.19,-0.18,0.14778,-0.596,0.105,0.078,-0.94,-0.23778,-0.10778
15064,-1.255,0.148,-0.008,-0.96333,1.08,0.07,-1.738,-0.275,-0.528,-1.74778,-1.54667,0.00778
15162,-1.26,0.229,0.134,0.04,2.59556,0.65444,-1.181,-0.159,0.067,-0.38889,-1.29667,0.23556
15263,-1.024,0.263,0.059,2.27444,1.74444,0.58222,-1.084,0.095,0.113,0.35778,-0.90111,-0.31222
15370,-0.684,0.06,-0.074,1.48444,0.79889,0.44444,-0.959,-0.2,0.197,1.25556,-0.60778,-0.13444
15464,-0.657,-0.111,-0.125,0.18889,-0.41444,0.13444,-0.952,-0.122,0.182,0.26444,-0.8,0.06333
15560,-0.82,0.147,-0.471,-0.82778,-1.60778,-0.70111,-1.017,-0.145,0.061,0.58667,-0.59778,0.03667
15666,-0.551,-0.081,-0.658,-0.2,0.42111,0.71444,-1.102,-0.026,-0.035,0.52889,0.06,-0.10111
15763,-1.405,0.363,-0.58,1.42222,-0.21444,0.49333,-1.25,-0.042,-0.028,0.19778,1.95,0.15333
15871,-1.259,0.934,0.244,-0.54,-1.20556,-0.15,-1.417,-0.444,0.401,1.71,2.35556,-0.70778
15958,-0.952,-0.012,0.037,-1.41,-1.10778,0.02111,-0.989,0.001,0.089,-2.19444,1.41,-0.55222
16069,-0.946,0.299,0.014,-0.91889,-0.46556,0.0,-0.623,0.062,0.057,-1.56222,0.42556,-0.02556
16164,-0.896,0.065,-0.006,0.07444,-0.66111,-0.08667,-0.709,0.173,-0.389,1.58444,-0.90667,-0.26222
16269,-0.874,0.253,0.058,-0.33111,-0.61556,-0.06,-1.468,-0.371,-0.592,-1.25222,-1.18778,0.03111
16359,-1.147,0.213,0.006,-0.77556,-0.23333,0.12889,-0.803,0.166,0.0,-1.14778,-1.07889,0.15
16466,-1.344,0.074,-0.01,-0.10667,1.78,-0.01333,-0.9,0.067,-0.203,0.96111,-0.28556,-0.47
16568,-1.398,0.461,0.13,0.16556,2.61444,0.73111,-1.233,-0.831,-0.044,-0.56111,-0.41,0.08889
16672,-1.001,0.053,-0.054,2.68444,1.79,0.36444,-1.02,0.006,-0.11,0.22,-0.36667,-0.27222
16765,-0.504,0.048,-0.083,0.7,0.66667,0.35222,-0.903,-0.237,0.121,0.35,-0.47667,-0.07444
16863,-0.514,-0.069,-0.277,-0.51222,-1.01333,0.09667,-0.952,-0.079,0.087,-0.11,-0.78111,0.12
16964,-1.76,0.614,-0.966,0.28333,-1.88889,-0.61,-1.004,-0.347,0.145,0.67444,-0.62667,0.09667
17055,-0.67,-0.23,-0.135,-0.14889,-0.49111,0.24333,-1.22,0.009,-0.133,0.54333,-0.25667,-0.11222
17163,-1.296,-0.023,0.084,-1.64222,-0.89,-0.01111,-1.107,-0.057,0.082,0.34333,1.69111,-0.02667
17262,-1.132,0.448,0.234,0.20111,-0.92333,-0.49333,-1.307,-0.331,0.357,1.41,2.61778,-0.42
17362,-0.99,0.173,-0.082,-0.45,-0.43667,0.18667,-0.961,-0.168,0.024,-2.05444,1.58889,-0.45667
17462,-0.937,0.19,0.13,-0.45222,-0.42,0.12556,-0.58,-0.004,-0.038,-1.36889,0.32556,-0.32
17563,-0.948,0.182,0.01,-0.25222,-0.78889,-0.10222,-0.632,0.282,-0.196,0.71,-1.19778,0.01333
17664,-0.94,0.338,0.125,-0.60444,-0.48333,0.02222,-1.534,-0.374,-0.817,-1.33,-0.83667,-0.12333
17760,-1.191,0.27,-0.016,-0.74444,0.09778,0.21,-1.436,-0.128,0.336,-1.22778,-1.36222,-0.03667
17861,-1.067,-0.082,0.0,0.01778,2.72,-0.29778,-0.573,0.013,0.673,0.99444,-0.7,-0.21778
17964,-1.188,0.434,0.153,0.90111,2.24889,0.64,-1.024,0.013,0.161,0.36667,-0.94889,-0.39889
18063,-0.878,0.037,-0.118,2.05333,1.27778,0.42,-0.921,-0.242,0.15,1.83333,-0.37,-0.17444
18164,-0.532,-0.056,-0.055,1.05111,0.15444,0.38556,-0.876,-0.142,0.175,0.25556,-0.84,0.05333
18266,-0.532,-0.024,-0.405,-0.91667,-1.39889,-0.43444,-1.09,-0.081,-0.102,0.28333,-0.84,0.09778
18365,-1.25,-0.052,-0.717,-0.63333,0.28222,0.72111,-1.189,-0.176,0.289,0.25778,-0.03,-0.04222
18461,-1.252,0.175,-0.409,1.97111,-0.81444,-0.32778,-1.309,-0.11,0.0,0.65667,0.84556,0.03111
18560,-0.959,0.506,-0.032,0.27556,-1.14,-0.00444,-1.222,-0.062,0.211,0.57889,3.04222,0.18333
18661,-0.882,-0.133,0.159,-0.66444,-1.14889,0.22111,-0.963,-0.099,0.12,-1.83,1.74667,-0.63778
18763,-0.907,0.257,0.112,-1.23222,-0.38889,0.24222,-0.727,0.022,-0.036,-1.47556,1.05556,-0.35778
18862,-0.916,0.198,0.116,-0.23889,-0.76556,-0.08111,-0.583,0.208,0.002,0.06778,-0.50778,-0.27667
18963,-0.976,0.317,-0.009,-0.57111,-0.74444,-0.12889,-1.148,-0.459,-0.522,-0.32778,-1.59,0.47889
19059,-1.116,0.268,0.103,-0.29222,-0.30778,0.19222,-0.783,0.059,-0.184,-0.69,-0.32,-0.13778
19160,-1.314,0.078,0.04,-0.42,1.48333,0.16778,-1.028,-0.079,-0.171,0.29556,-0.40444,-0.09444
19261,-1.414,0.434,0.18,-0.64556,2.99444,0.68,-1.123,-0.598,0.12,-0.80111,-0.75,0.26222
19363,-1.014,0.139,0.049,2.59556,1.77333,0.41667,-1.009,-0.01,-0.057,0.43556,-0.39889,-0.24111
19463,-0.511,0.065,-0.107,0.74556,0.79,0.34,-0.925,-0.278,0.222,0.53333,-0.61222,-0.03889
19563,-0.501,-0.095,-0.229,-0.16,-1.07333,-0.11222,-1.013,-0.031,0.024,-0.10222,-0.82,0.03333
19664,-1.84,0.477,-0.886,0.22778,-1.26,-0.53333,-0.989,-0.408,0.154,0.82889,-0.42,0.02556
19765,-0.785,-0.152,0.011,0.04222,-0.67444,0.12333,-1.149,-0.119,-0.122,0.75333,0.15778,-0.12
19862,-0.827,-0.3,0.427,-1.3,-0.12111,0.44889,-1.094,0.243,-0.022,-0.1,2.36556,0.16333
19958,-1.024,0.313,0.208,0.13222,-0.79,-0.15889,-1.331,-0.366,0.202,0.54222,2.31333,-0.68
20061,-0.859,0.131,0.145,-1.37333,-0.91333,0.14,-0.823,-0.096,-0.046,-1.79556,1.48222,-0.26444
20164,-0.953,0.302,-0.004,-0.35111,-0.76667,-0.12333,-0.563,0.042,0.076,-1.06222,0.19444,-0.18667
20261,-0.969,0.126,-0.079,-0.21667,-0.78889,-0.08667,-0.747,0.037,-0.332,1.25333,-1.47,-0.11
20362,-0.951,0.34,0.19,-0.35667,-0.57111,-0.04889,-1.578,0.002,-0.794,-0.23444,-0.74889,-0.46556
20458,-1.214,0.156,-0.04,-0.82333,0.10556,0.14222,-1.052,-0.23,0.464,-1.17333,-1.72889,-0.05444
20563,-1.115,-0.079,0.055,0.42667,2.64667,-0.17667,-0.503,0.137,0.774,0.31444,-0.50556,-0.48667
20658,-1.137,0.356,0.178,1.07111,2.25,0.72889,-0.978,-0.209,0.196,1.37556,-0.69111,-0.39667
20763,-0.858,0.012,-0.062,1.88222,1.46889,0.34667,-0.919,-0.094,0.136,1.12667,-0.39667,-0.09444
20858,-0.456,0.047,-0.052,0.50556,0.27444,0.18667,-0.918,-0.14,0.235,0.53556,-0.59,0.06556
20959,-0.697,0.111,-0.502,-0.35,-1.69444,-0.51667,-0.997,-0.12,-0.109,0.35111,-0.77222,0.06
21062,-1.066,-0.008,-0.424,-0.26889,0.47667,0.75222,-1.22,-0.225,0.189,0.4,-0.15222,0.12556
21163,-1.2,0.337,-0.568,1.86556,-0.3,0.11889,-1.335,-0.148,0.011,0.46556,0.97222,0.08222
21261,-1.177,0.71,0.005,-0.09111,-1.19444,-0.02111,-1.314,-0.263,0.368,0.44,2.98889,0.14444
21361,-1.022,0.243,0.002,-0.59222,-1.19111,-0.00778,-1.049,-0.018,0.157,-1.78889,1.83778,-0.75556
21454,-0.933,0.155,0.14,-0.64889,-0.85556,-0.12333,-0.557,0.046,0.015,-1.41889,1.08,-0.43556
21564,-0.946,0.25,0.021,-0.55444,-0.77444,-0.05778,-0.516,0.171,0.056,0.05444,-0.65222,0.04
21661,-0.913,0.381,0.014,-0.64,-0.52889,-0.00556,-1.342,-0.496,-0.718,-0.83222,-1.35222,0.40333
21758,-1.16,0.216,0.0,-0.29889,-0.25111,0.21222,-0.762,0.172,-0.186,-1.27111,-0.37778,-0.03
21858,-1.344,0.014,-0.081,0.05778,2.08,0.00222,-0.66,0.094,0.337,0.58667,-0.59556,-0.51333
21964,-1.39,0.41,0.179,-0.39111,2.48889,0.80889,-1.122,-0.594,-0.075,-0.18444,-0.48556,0.11
22061,-0.914,0.063,-0.061,2.44444,1.68889,0.26333,-0.985,0.017,-0.023,0.41778,-0.40444,-0.17111
22158,-0.514,0.056,-0.02,0.39333,0.4,0.11222,-0.944,-0.297,0.198,0.76889,-0.63889,0.10444
22263,-0.461,0.041,-0.479,-0.59556,-1.68,-0.48,-0.942,0.014,-0.035,0.03556,-1.00778,0.05
22363,-0.948,0.197,-0.393,0.96,0.63556,0.49333,-1.066,-0.533,0.274,0.78,-0.15,0.15
22463,-1.49,0.385,-0.415,1.43111,-0.49444,0.01889,-1.347,-0.062,-0.048,0.66667,0.81778,0.01444
22564,-0.89,0.363,-0.107,0.22333,-0.84667,-0.01222,-1.291,0.04,0.094,0.01667,2.74,0.38
22659,-0.931,0.138,-0.058,-0.61556,-1.19111,0.10556,-1.015,-0.115,0.089,-1.28667,1.85222,-0.68556
22761,-0.864,0.212,0.142,-1.09889,-1.08111,-0.09111,-0.687,0.003,0.023,-0.82889,1.08778,-0.50111
22857,-1.027,0.253,-0.073,0.44778,-0.93778,-0.19889,-0.531,0.088,0.024,-0.35,-0.41111,-0.01111
22963,-0.939,0.337,-0.021,-0.40556,-0.53778,-0.11222,-1.292,-0.333,-0.706,0.97,-1.63222,0.34444
23058,-1.068,0.041,0.12,0.02889,-0.33111,0.32222,-0.468,0.177,-0.371,-0.02,0.46111,-0.21
23162,-1.369,0.19,-0.015,-0.73667,1.75667,0.06556,-1.466,0.078,-0.42,-0.33,-0.31111,-0.06
23261,-1.376,0.355,0.179,-0.34556,2.74556,0.75444,-1.333,-0.237,-0.051,-0.45556,-0.87333,0.47
23363,-0.962,0.079,-0.006,2.42556,1.76,0.30889,-1.003,-0.025,-0.023,0.15333,-0.51222,-0.15778
23466,-0.515,0.016,-0.056,0.48444,0.6,0.08667,-0.915,-0.181,0.124,0.74,-0.61,-0.06667
23563,-0.463,-0.025,-0.247,-0.45111,-1.25667,-0.31444,-0.934,-0.147,0.078,-0.11222,-0.91667,0.07111
23660,-2.088,0.699,-0.934,0.57667,0.13222,0.18333,-1.066,-0.496,0.259,0.59333,-0.42667,0.22111
23760,-1.117,0.184,-0.213,-0.16111,-0.27889,0.1,-1.201,-0.21,-0.108,0.98556,0.30222,-0.10778
23852,-1.268,-0.232,0.329,-0.55444,-0.63333,-0.35667,-1.189,0.353,0.012,-0.43778,2.6,0.27222
23961,-1.039,0.349,-0.007,-0.21222,-1.10111,-0.06889,-1.289,-0.427,0.212,0.33778,2.24333,-0.87333
24062,-0.85,0.048,0.013,-1.59667,-1.04667,0.04,-0.636,0.03,0.02,-1.83778,1.31111,-0.45556
24161,-0.892,0.315,-0.005,-0.19667,-0.72111,-0.26556,-0.53,0.026,0.127,-0.83333,0.02,0.15556
24261,-0.937,0.131,-0.166,-0.17333,-0.72444,-0.08667,-1.077,-0.182,-0.588,1.93,-1.86333,0.40556
24361,-1.053,0.146,0.208,0.05889,-0.41889,0.19,-0.954,-0.02,-0.693,1.68889,0.22222,-0.64
24464,-1.355,0.166,-0.06,-0.68111,0.88889,0.24,-1.016,0.144,-0.537,-2.36667,-0.05889,0.16333
24563,-1.407,0.385,0.205,0.16778,3.45333,0.55556,-1.278,-0.387,0.038,-0.92222,-1.18111,0.35
24659,-1.018,0.2,0.062,2.10444,2.01778,0.51889,-0.999,0.188,-0.004,0.62,-0.54667,-0.43111
24759,-0.495,0.107,-0.094,0.80889,0.73,0.35111,-0.908,-0.344,0.22,0.85778,-0.66444,-0.02556
24863,-0.442,-0.114,-0.188,0.13111,-0.97667,-0.1,-1.017,-0.057,0.059,-0.15111,-0.84111,0.05111
24963,-1.703,0.544,-1.115,-0.56667,-1.97778,-0.68333,-0.988,-0.231,0.01,0.94333,-0.58778,0.03667
25062,-0.665,-0.355,-0.14,-0.25889,0.09,0.21778,-1.198,0.027,-0.133,0.50111,0.24,-0.30667
25164,-0.874,-0.265,0.421,-1.18889,-0.54111,0.23333,-1.078,0.402,0.048,0.06,2.59333,0.33333
25256,-0.892,0.234,0.025,-0.51667,-0.69222,-0.04556,-1.277,-0.502,0.297,1.06889,2.14889,-0.73889
25364,-0.906,0.059,0.053,-0.96,-1.07444,0.03778,-0.838,-0.094,-0.036,-2.24333,1.16111,-0.57889
25463,-0.944,0.299,0.024,-0.56778,-0.9,-0.25,-0.554,0.083,0.066,-1.13444,-0.02556,-0.09333
25559,-0.977,0.226,-0.087,-0.4,-0.72667,-0.21556,-0.832,-0.053,-0.407,1.86556,-1.71222,0.25111
25662,-0.962,0.242,0.192,-0.31333,-0.34444,0.15556,-1.054,0.056,-0.67,-0.05,-0.14333,-0.57889
25762,-1.389,0.25,-0.013,-1.26667,1.00778,0.08667,-1.848,-0.081,0.036,-1.85111,-1.49667,0.44
25863,-1.317,0.12,0.098,0.41889,2.96778,0.39,-0.948,-0.196,0.456,0.46889,-1.19556,-0.03222
25966,-0.954,0.277,0.13,2.31333,1.92444,0.65778,-0.949,0.22,0.161,0.79,-0.76778,-0.33778
26067,-0.677,0.036,-0.167,1.03111,0.73333,0.56667,-0.938,-0.246,0.202,1.39667,-0.54667,-0.07556
26161,-0.533,-0.1,-0.09,0.28111,-0.65889,0.10778,-0.933,-0.108,0.16,0.08667,-0.62556,0.04444
26263,-1.101,0.277,-0.699,-0.95778,-1.69,-0.78333,-1.002,-0.24,-0.047,0.58222,-0.55889,0.06
26361,-0.791,0.081,-0.487,0.11,-0.12889,0.32444,-1.195,-0.099,0.041,0.76,0.04,-0.04222
26463,-0.756,-0.355,0.045,0.09889,0.14111,0.78,-1.218,0.112,-0.087,0.25333,2.02667,0.21889
26560,-1.155,0.791,0.181,-0.47444,-0.83667,-0.09556,-1.378,-0.416,0.34,1.61,2.15667,-0.5
26669,-0.952,0.128,0.112,-1.64,-0.86889,0.17889,-0.955,-0.098,0.011,-2.36333,1.19444,-0.34222
26767,-0.964,0.35,0.037,-0.83778,-0.74667,-0.14667,-0.699,0.019,0.084,-2.04111,0.39889,-0.19
26862,-0.973,0.135,-0.031,-0.47,-0.75111,-0.25444,-0.609,0.208,-0.211,1.46778,-0.52222,-0.36556
26961,-0.947,0.323,0.021,-0.43444,-0.57778,-0.10444,-1.223,-0.269,-0.815,-1.24111,-1.53778,0.01222
27065,-1.171,0.316,-0.14,-0.84222,0.17556,0.14111,-0.85,0.122,0.147,-1.92667,-0.48778,0.06889
27162,-1.177,-0.129,-0.067,0.62222,2.74111,-0.01111,-0.607,-0.058,0.815,0.85889,-0.51222,-0.2
27262,-1.119,0.404,0.118,1.41556,2.28333,0.92444,-0.948,-0.174,0.186,0.8,-0.77111,-0.46556
27361,-0.791,-0.014,-0.132,1.73,1.21,0.41,-0.91,-0.194,0.061,1.43222,-0.40889,-0.12333
27460,-0.519,0.006,-0.054,0.78,-0.04667,0.02111,-0.913,-0.187,0.146,0.42222,-0.67,-0.00667
27559,-0.772,0.152,-0.512,-1.06,-1.81778,-0.69778,-0.997,-0.186,-0.064,0.27444,-0.8,0.03
27650,-0.756,0.013,-0.548,0.07222,0.38333,0.71667,-1.17,-0.09,0.089,0.4,-0.09,0.09333
27759,-1.329,0.26,-0.375,2.36333,0.16333,0.40778,-1.406,0.032,0.009,0.26,1.69667,0.07
27861,-1.17,0.897,0.097,0.11556,-0.90778,-0.19667,-1.312,-0.402,0.439,1.67444,2.64667,-0.36222
27961,-0.93,0.153,0.059,-1.19889,-0.94889,0.08444,-1.025,0.039,0.044,-2.23889,1.4,-0.43333
28058,-0.883,0.263,0.188,-0.49556,-1.11889,-0.23,-0.533,0.028,0.001,-1.12778,0.84,-0.16
28160,-0.983,0.169,-0.129,-0.21,-1.04556,-0.31,-0.421,0.197,-0.162,0.89111,-1.34,0.22333
28261,-0.887,0.481,0.035,-0.8,-0.23889,0.02,-1.873,-0.416,-0.996,-1.46222,-0.91222,-0.07
28356,-1.413,0.155,0.011,-0.74556,0.49889,0.25444,-2.158,-0.401,0.242,-2.22444,-1.97889,0.08333
28461,-1.423,0.12,0.119,-0.00222,3.06333,0.53,-0.768,-0.053,0.675,-0.12778,-1.52,0.05556
28563,-0.972,0.293,0.149,2.09222,2.31,0.67,-0.964,0.36,0.117,0.70222,-0.63444,-0.36333
28659,-0.626,0.082,-0.155,0.90333,0.84222,0.43556,-0.922,-0.25,0.26,1.02,-0.61778,-0.11444
28764,-0.453,-0.107,-0.138,0.17,-0.69222,-0.10667,-0.917,-0.104,0.182,0.48222,-0.80556,0.04556
28863,-1.368,0.186,-0.858,-0.91111,-2.26,-0.66667,-1.092,-0.204,-0.033,0.94,-0.68,0.08889
28960,-0.604,-0.21,-0.504,-0.19,-0.42,0.20222,-1.246,-0.09,-0.179,0.58111,0.27222,-0.09444
29059,-0.323,-0.671,0.426,-0.76556,-0.42,0.45889,-1.291,0.171,0.182,-0.10778,3.21111,0.15556
29157,-0.792,-0.008,0.037,0.27778,-1.12111,0.16333,-1.101,-0.221,0.16,-1.90667,2.16,-0.77222
29260,-0.902,0.151,0.041,-1.62222,-1.12,0.01778,-0.601,0.025,-0.065,-1.44222,1.43556,-0.51111
29360,-0.927,0.265,-0.078,-0.72444,-0.88667,-0.28222,-0.524,0.04,0.137,-0.96778,-0.1,-0.03222
29459,-0.91,0.39,-0.055,-1.09,-0.74667,-0.14556,-0.916,-0.276,-0.551,1.31111,-1.77333,0.29444
29559,-1.216,0.145,-0.003,-0.35889,-0.49222,0.14111,-0.902,0.358,-0.62,1.23667,0.17556,-0.52444
29662,-1.333,0.206,-0.153,-0.37778,2.43111,0.00889,-1.26,0.071,-0.658,-1.19667,-0.04111,0.13778
29760,-1.366,0.357,0.04,0.79889,2.30667,1.16333,-1.051,-0.542,-0.079,-0.20889,-0.89333,0.07667
29860,-0.885,0.054,0.013,2.75333,1.77667,0.41444,-0.973,-0.151,0.001,0.87,-0.65889,-0.18778
29962,-0.447,0.052,0.016,1.14444,0.47444,0.29333,-0.951,-0.231,0.134,0.64444,-0.77667,-0.01444
30060,-0.376,-0.116,-0.434,-0.78,-1.79111,-0.26444,-1.002,-0.05,0.055,0.53778,-0.91111,0.21111
30160,-1.182,0.397,-0.383,1.11,0.62444,0.54222,-1.214,-0.503,0.062,0.87556,-0.17222,0.30111
30255,-0.541,0.324,0.308,1.52667,0.77889,1.20333,-1.274,0.263,-0.084,0.00111,2.84556,0.22889
30361,-1.063,0.55,0.136,-0.44333,-1.62444,0.23111,-1.308,-0.321,0.187,-0.91111,2.33778,-1.23556
30461,-0.897,0.207,0.108,-1.84444,-1.10778,0.14,-0.773,0.083,0.033,-1.96,1.78667,-0.46667
30564,-0.922,0.303,-0.02,-0.55889,-0.77778,-0.21444,-0.532,-0.006,0.197,-1.10667,0.4,0.16333
30660,-0.951,0.144,-0.118,-0.83333,-0.77111,-0.15333,-0.797,-0.025,-0.493,1.25222,-1.77111,0.14889
30758,-1.022,0.27,0.071,-0.48222,-0.33222,0.0,-1.06,0.005,-0.567,1.09,0.04444,-0.57
30860,-1.217,0.249,-0.118,-0.39778,1.64444,0.11222,-1.939,0.007,-0.316,-1.65889,-1.79444,0.12444
30960,-1.467,0.346,0.2,0.00333,2.5,1.38111,-0.982,-0.105,0.68,0.59111,-1.47111,0.23111
31059,-1.113,0.183,0.147,3.24,1.78222,0.71667,-0.887,0.328,-0.067,0.12,-0.47222,-0.41444
31161,-0.405,0.0,-0.076,0.88889,0.55111,0.30778,-0.868,-0.277,0.114,1.25778,-0.50667,-0.04889
31261,-0.453,-0.055,-0.357,-0.29444,-1.34,-0.26667,-0.963,-0.047,-0.05,0.11222,-1.06333,0.05444
31358,-1.456,0.474,-0.9,1.40333,0.20222,0.04889,-1.049,-0.389,0.198,1.15,-0.41333,0.17778
31461,-1.302,0.145,-0.312,0.17,-0.57111,0.17222,-1.233,-0.288,-0.121,0.86111,0.17,0.07889
31559,-0.841,-0.423,0.481,-0.73444,-0.77444,-0.47667,-1.306,0.336,-0.028,-0.36667,3.00778,0.38222
31662,-1.084,0.013,-0.1,0.35889,-1.44,0.10222,-1.083,-0.298,0.229,-1.68333,2.12333,-0.82222
31761,-0.865,0.231,0.043,-1.87,-0.99,0.04556,-0.744,-0.053,-0.009,-1.79889,1.27111,-0.51222
31861,-0.908,0.251,0.009,-0.73,-0.70778,-0.19778,-0.546,0.079,0.238,-1.35667,-0.23778,-0.29556
31959,-0.874,0.165,-0.03,-1.04889,-0.71,-0.19222,-1.041,-0.202,-0.575,0.76,-1.28333,0.38
32061,-1.045,0.175,-0.025,-0.82667,-0.30778,0.0,-0.936,-0.075,-0.428,0.88,-0.12556,-0.4
32161,-1.28,0.33,-0.011,-0.69889,1.98778,0.06,-1.466,0.022,-0.301,-2.31222,-0.57333,-0.01222
32259,-1.416,0.252,-0.007,0.54111,2.26444,1.19444,-1.334,-0.547,-0.017,0.66,-0.96889,0.19889
32359,-0.997,0.146,0.058,3.48778,1.70222,0.65556,-0.935,0.064,-0.073,0.39222,-0.46111,-0.32444
32460,-0.497,-0.002,0.038,1.34667,0.66667,0.36333,-0.914,-0.245,0.151,0.72444,-0.66,-0.07333
32560,-0.418,-0.253,-0.368,-0.59222,-1.43,-0.3,-0.951,0.0,-0.027,0.51444,-0.99444,0.02556
32665,-1.287,0.526,-0.587,0.68556,0.40778,0.29778,-1.172,-0.621,0.177,0.71889,-0.37556,0.22
32762,-1.644,0.328,-0.423,1.22,-0.78889,-0.04889,-1.448,-0.166,-0.043,0.60889,1.23222,0.05
32861,-0.974,0.426,-0.041,-0.09556,-0.91,-0.40778,-1.273,-0.257,0.415,0.51667,2.99333,-0.14889
32960,-0.918,-0.027,-0.104,-0.42889,-1.17333,0.02889,-1.085,0.007,0.156,-2.34111,2.07,-0.57778
33060,-0.851,0.159,0.224,-1.00333,-1.25667,-0.17556,-0.512,0.101,0.038,-0.82111,1.35333,-0.28667
33161,-1.057,0.192,-0.175,-0.10333,-1.12111,-0.28111,-0.387,0.12,0.054,-0.20667,-0.60444,0.06556
33259,-0.954,0.419,-0.028,-1.11,-0.21,0.01889,-1.778,-0.292,-1.017,-0.01556,-2.41667,0.25889
33360,-1.328,0.07,-0.116,-0.20778,0.94,0.22889,-1.529,-0.09,0.366,-1.88778,-1.46444,-0.15
33458,-1.397,0.305,0.345,-0.78333,3.12,0.72,-0.83,-0.298,0.778,0.07111,-1.35556,-0.11
33552,-0.93,0.179,0.138,2.63667,2.01667,0.42556,-0.937,0.252,0.106,1.26111,-0.63,-0.62778
33662,-0.51,-0.029,-0.126,0.64556,1.00778,0.31333,-0.98,-0.409,0.257,1.84889,-0.73222,-0.00778
33759,-0.43,-0.13,-0.021,-0.00667,-0.82111,-0.18667,-1.003,-0.116,0.123,0.12,-0.95667,0.11778
33860,-2.102,0.526,-1.311,-0.04111,-1.44111,-0.30333,-1.029,-0.361,0.082,0.99556,-0.53667,0.09778
33954,-0.937,-0.174,-0.192,-0.30222,-0.51889,0.15444,-1.219,-0.127,-0.169,0.65667,0.17,-0.08
34058,-0.786,-0.328,0.703,-0.96889,-0.58333,0.09667,-1.298,0.165,0.096,-0.11444,3.13444,0.35
34159,-1.02,0.015,-0.013,-0.24111,-1.30333,-0.01,-1.101,-0.279,0.185,-1.29,2.05444,-1.05333
34261,-0.847,0.258,0.118,-1.50333,-1.14889,0.04889,-0.645,-0.016,-0.021,-1.77667,1.32556,-0.63333
34362,-0.928,0.289,-0.003,-0.26444,-0.82889,-0.25667,-0.514,0.07,0.167,-0.61444,-0.16111,-0.08
34464,-0.872,0.224,-0.035,-0.79333,-0.67,-0.10333,-1.076,-0.226,-0.604,1.44667,-1.89333,0.61222
34561,-1.31,0.215,-0.034,-0.24111,-0.36333,0.22556,-0.882,0.007,-0.552,0.20444,0.54222,-0.12667
34659,-1.325,-0.045,-0.228,0.05,2.15,0.10444,-0.576,0.314,0.161,-0.57667,-0.46778,-0.30889
34762,-1.328,0.56,0.118,-0.22111,2.54889,0.96889,-1.017,-0.382,-0.103,-0.20222,-0.77222,-0.01222
34854,-0.875,-0.023,-0.052,2.90556,1.65667,0.35333,-0.883,0.015,0.006,1.09111,-0.46,-0.2
34960,-0.388,0.053,0.02,0.45444,0.52889,0.33889,-0.914,-0.294,0.115,0.4,-0.73111,-0.00667
35059,-0.489,-0.032,-0.384,-0.99889,-1.65111,-0.54778,-0.986,-0.011,0.008,0.18,-0.85444,0.07
35160,-0.833,0.145,-0.645,0.98444,0.92222,0.88333,-1.205,-0.266,0.223,0.24556,-0.11444,0.18222
35254,-1.32,0.279,-0.303,2.25889,-0.02,0.16,-1.38,0.139,-0.155,0.46222,2.01667,0.20222
35360,-1.098,0.635,0.174,0.23556,-1.35111,-0.07333,-1.439,-0.521,0.31,1.61444,2.39444,-0.97
35459,-0.895,0.071,0.088,-1.12889,-1.23556,0.11222,-1.021,0.071,0.039,-2.46667,1.50222,-0.60333
35561,-0.923,0.193,0.028,-1.01333,-0.68444,-0.10222,-0.504,0.042,0.062,-1.19,0.53667,-0.08
35658,-0.958,0.113,-0.064,-0.22222,-0.86556,-0.07222,-0.511,0.229,-0.202,0.66889,-1.57556,0.05111
35759,-0.991,0.51,0.194,-0.71111,-0.44889,-0.01889,-1.626,-0.294,-0.733,-1.11444,-0.25,-0.26222
35859,-1.41,0.229,0.02,-0.91222,0.76778,0.25889,-1.97,-0.539,0.422,-1.91889,-2.05111,0.37556
35959,-1.373,0.228,0.219,0.01556,3.21,0.78889,-0.77,-0.123,0.766,0.17556,-1.43222,0.33556
36059,-1.057,0.351,0.215,3.18,2.02889,0.67889,-0.947,0.179,0.07,1.07667,-0.60778,-0.52222
36158,-0.553,-0.041,-0.086,0.94222,0.89778,0.25444,-0.898,-0.281,0.218,1.60889,-0.53333,-0.02444
36264,-0.356,-0.074,-0.102,-0.02444,-0.75222,-0.14,-1.002,-0.096,0.11,0.15778,-1.11,0.21
36358,-2.353,0.455,-1.397,-0.08889,-1.93778,-0.63,-0.981,-0.515,0.065,1.26889,-0.34,0.16778
36460,-0.674,-0.205,-0.234,-0.45444,-0.45778,0.37778,-1.175,-0.027,-0.02,0.20778,0.07556,-0.11
36564,-1.148,-0.15,0.521,-1.35556,-1.24556,-0.17222,-1.164,0.382,-0.021,-0.21333,2.52,0.27667
36658,-0.947,0.063,0.007,-0.28667,-1.29444,-0.06889,-1.14,-0.453,0.203,0.29778,2.14111,-1.02
36762,-0.893,0.216,0.035,-1.67,-0.8,0.08667,-0.739,-0.017,0.064,-2.32556,1.39667,-0.60778
36864,-0.912,0.38,-0.001,-0.54222,-0.77333,-0.22667,-0.512,0.085,0.058,-1.11333,0.06222,-0.08222
36959,-0.977,0.341,-0.12,-0.27333,-0.95556,-0.11111,-1.132,-0.18,-0.679,1.59111,-1.78889,0.33222
37058,-1.163,0.18,0.091,-0.38556,-0.37889,0.19778,-0.794,0.043,-0.47,1.26778,0.39889,-0.61667
37160,-1.353,0.159,0.03,-0.33222,1.93889,0.16889,-0.811,0.187,-0.142,-2.15,-0.25222,-0.28111
37261,-1.374,0.305,0.133,-0.21,2.63667,0.97111,-1.25,-0.513,0.099,0.30444,-1.01778,0.18667
37366,-1.001,0.129,-0.032,3.21444,1.86444,0.42667,-0.921,-0.052,-0.007,1.01444,-0.55333,-0.27111
37467,-0.478,0.01,0.03,1.07222,0.52444,0.30667,-0.888,-0.243,0.176,0.42333,-0.75333,-0.05889
37566,-0.379,-0.235,-0.388,-0.93111,-1.65,-0.31667,-1.0,-0.051,-0.035,0.34667,-1.05667,0.12667
37659,-1.25,0.472,-0.735,0.59444,0.34333,0.51889,-1.173,-0.39,0.211,0.33444,-0.24778,0.24222
37759,-1.471,0.526,-0.253,1.98778,-0.31889,-0.01667,-1.415,-0.226,-0.012,0.11,1.88778,0.11222
37858,-1.12,0.661,-0.058,0.63222,-0.86444,-0.54,-1.305,-0.444,0.499,1.73111,2.49444,-0.61667
37960,-0.975,0.03,0.002,-0.84333,-1.07778,0.01333,-1.017,-0.004,0.12,-2.68222,1.71111,-0.36889
38063,-0.871,0.3,0.163,-1.11778,-0.98444,-0.22889,-0.539,0.031,0.032,-1.13,0.72444,-0.16778
38158,-1.006,0.121,-0.134,0.03111,-1.04778,-0.15556,-0.501,0.245,-0.074,0.75,-0.94,-0.12
38258,-0.916,0.437,0.124,-0.73333,-0.48333,-0.10444,-1.654,-0.352,-0.997,-0.85111,-1.60778,0.16667
38354,-1.256,0.101,-0.135,-0.81222,0.32333,0.15667,-0.796,0.095,0.261,-1.77333,-1.10556,-0.10444
38458,-1.417,0.119,0.196,0.67444,2.99889,0.32556,-0.503,-0.061,0.719,0.89333,-1.22333,-0.56222
38559,-1.059,0.264,0.196,2.6,2.28444,0.78667,-0.95,-0.078,0.09,1.25111,-0.74444,-0.61889
38660,-0.646,-0.077,-0.043,1.31444,1.44889,0.52444,-0.895,-0.236,0.166,1.59444,-0.54889,-0.06222
38759,-0.44,-0.016,-0.026,0.44111,-0.26889,-0.02222,-1.01,-0.147,0.093,0.18444,-0.88444,0.08222
38860,-1.364,0.107,-0.827,-0.42,-2.61222,-0.76111,-1.062,-0.213,0.013,0.53556,-0.56778,0.13778
38961,-0.835,-0.373,-0.333,0.38111,-0.37,0.20111,-1.286,-0.017,-0.072,0.30556,0.29222,-0.00333
39062,-0.619,-0.276,0.83,-1.77,-0.94222,0.5,-1.334,0.299,0.042,-0.23111,2.83111,0.58
39158,-0.828,0.139,0.084,-0.36667,-1.37,0.05667,-1.15,-0.361,0.204,-0.57667,2.14111,-1.09222
39263,-0.893,0.247,0.01,-1.66,-0.96333,-0.01222,-0.636,0.004,-0.01,-1.85,1.39889,-0.58333
39360,-0.899,0.28,0.008,-0.29,-0.84333,-0.08222,-0.555,0.102,0.079,-0.66556,-0.11,0.07778
39461,-0.901,0.332,-0.038,-0.46889,-0.91,-0.08,-1.054,-0.166,-0.638,1.52,-1.84778,0.56444
39558,-1.014,0.248,0.09,-0.46333,-0.15,0.25,-0.801,-0.253,-0.339,1.55,0.11111,-0.45
39660,-1.387,0.033,-0.113,0.36,2.17,0.04111,-1.01,0.469,0.097,0.17778,-0.15444,-0.10556
39760,-1.255,0.449,0.154,0.55,2.38333,0.87444,-1.349,-0.568,-0.283,0.9,-0.71,0.26222
39856,-0.814,0.0,-0.071,2.64778,1.71333,0.32778,-0.922,0.015,0.041,0.08444,-0.59556,-0.01556
39960,-0.458,0.02,0.054,0.53444,0.62111,0.08,-0.942,-0.215,0.168,0.29111,-0.71,0.00778
40049,-0.544,0.081,-0.402,-0.87,-1.6,-0.56111,-0.895,0.011,0.071,0.12556,-0.88889,0.08
40158,-1.111,0.325,-0.696,0.59222,0.88556,0.54333,-1.161,-0.28,0.301,0.73778,-0.19111,0.20111
40254,-1.124,0.328,-0.208,-0.03,-0.72333,0.18444,-1.349,-0.166,-0.095,0.84111,0.26444,-0.02
40358,-0.815,0.256,0.064,-0.73,-0.78,-0.01111,-1.27,-0.353,0.445,0.30222,3.03222,-0.04778
40458,-0.932,0.052,0.026,-0.02222,-1.42556,0.0,-1.089,0.02,0.187,-2.25556,2.06222,-0.72
40560,-0.852,0.275,0.17,-2.03222,-1.17,0.03,-0.569,-0.077,0.039,-1.32,1.52444,-0.42667
40658,-1.002,0.255,-0.078,-0.29222,-0.83556,-0.13556,-0.471,0.193,0.112,-0.35778,-0.40667,-0.08444
40758,-0.932,0.271,0.06,-0.96556,-0.57,-0.09667,-1.261,-0.2,-0.62,0.03889,-2.01333,0.35
40859,-1.229,0.277,-0.041,-0.35778,-0.23889,0.15222,-0.838,0.064,-0.354,-1.74667,-0.45444,0.03889
40959,-1.176,-0.03,-0.012,-0.16222,2.41778,-0.12,-0.709,0.154,0.464,0.61556,-0.43444,-0.38778
41061,-1.344,0.367,0.128,1.15,2.29,1.21111,-0.991,-0.536,-0.021,0.30667,-0.55,-0.2
41159,-0.837,-0.062,-0.087,2.57111,1.87222,0.43,-0.904,-0.081,-0.059,1.32667,-0.47889,-0.19667
41248,-0.414,0.064,0.038,0.66111,0.55778,0.10111,-0.949,-0.172,0.129,0.09889,-0.75444,-0.01444
41358,-0.614,0.138,-0.529,-0.73222,-1.74667,-0.42,-0.988,-0.053,-0.018,0.52222,-0.94333,0.09
41452,-0.897,0.135,-0.555,0.86667,0.63889,0.64,-1.086,-0.123,0.205,0.48,-0.22444,0.03333
41559,-1.253,0.694,-0.298,1.43333,-0.56444,0.24222,-1.409,-0.151,-0.122,0.28556,1.22444,0.05444
41662,-1.032,0.594,0.196,0.48667,-1.55444,0.01222,-1.343,-0.437,0.521,1.26778,2.76778,-0.47889
41755,-0.877,-0.083,-0.022,-0.43778,-1.33333,0.11556,-0.962,-0.043,0.127,-2.52889,1.77333,-0.54889
41861,-0.889,0.338,0.11,-1.53,-0.9,-0.05444,-0.599,0.007,-0.031,-1.41556,0.98222,-0.39556
41961,-0.97,0.141,0.024,-0.09,-0.86444,-0.05111,-0.547,0.23,-0.093,-0.13,-0.64667,-0.34889
42061,-0.873,0.388,0.175,-1.03222,-0.50556,-0.05333,-1.407,-0.458,-0.667,-0.64333,-1.47667,0.49556
42157,-1.317,0.281,-0.078,-0.86889,-0.01,0.21889,-0.582,0.201,0.137,-1.72889,-0.47556,0.06667
42259,-1.114,-0.083,-0.049,0.96667,2.73444,0.04778,-0.536,0.173,0.59,0.71667,-1.01778,-0.62
42360,-1.194,0.334,0.2,1.33556,2.6,0.6,-0.938,-0.134,0.052,0.39333,-0.47556,-0.36
42457,-0.755,0.099,-0.042,1.97444,1.62,0.46222,-0.906,-0.14,0.053,0.99556,-0.52889,-0.13111
42562,-0.482,-0.075,0.024,1.09889,0.37556,0.25667,-0.858,-0.081,0.245,0.13111,-0.86111,0.03889
42651,-0.686,0.257,-0.657,-0.75111,-1.64,-0.71889,-0.992,-0.121,-0.04,0.74111,-0.89778,0.07444
42760,-1.213,0.152,-0.47,-0.28,0.19667,0.61778,-1.185,-0.267,0.117,0.83111,-0.18667,0.04889
42857,-0.858,-0.104,-0.204,0.25889,0.48556,0.62556,-1.366,-0.032,-0.017,0.07556,1.42222,0.01
42955,-1.035,0.735,0.193,-0.34,-1.31556,0.00222,-1.366,-0.46,0.478,1.52333,2.57333,-0.55556
43058,-0.936,0.178,0.041,-1.29333,-1.23889,0.09,-1.034,0.063,0.084,-2.51,1.89778,-0.58333
43162,-0.922,0.17,0.029,-0.68,-0.69333,-0.06111,-0.521,0.054,0.029,-0.91556,0.96333,-0.23889
43254,-0.945,0.104,0.016,-0.10222,-0.99889,-0.10778,-0.479,0.149,-0.173,0.27,-0.94556,-0.02111
43359,-0.926,0.47,0.123,-0.77111,-0.50111,0.03,-1.861,-0.274,-0.93,-1.01778,-0.85556,0.06111
43453,-1.244,0.204,-0.092,-0.78,0.24111,0.12,-0.979,-0.009,0.195,-1.45444,-1.67444,-0.04667
43558,-1.119,-0.007,0.091,0.33111,2.97556,0.23889,-0.505,0.209,0.751,0.74889,-0.82778,-0.39
43658,-1.108,0.43,0.229,0.92,2.67222,0.85556,-1.012,-0.162,0.173,1.18,-0.94333,-0.45889
43755,-0.751,0.054,-0.071,2.25,1.46444,0.56111,-0.908,-0.145,0.051,1.65222,-0.38333,-0.25
43854,-0.371,-0.032,0.01,0.63333,-0.27111,0.23444,-0.931,-0.134,0.152,0.65,-0.74667,-0.01
43954,-0.923,0.306,-0.648,-0.27889,-2.55222,-0.97889,-1.043,-0.196,-0.092,0.64222,-0.84,0.15111
44057,-0.689,-0.232,-0.323,0.02889,0.65,0.41889,-1.278,0.02,0.105,0.27556,-0.15556,-0.13667
44159,-0.385,-0.011,0.002,-0.02,-0.30111,1.06556,-1.249,-0.268,-0.075,-0.06778,1.27,0.00778
44261,-1.052,0.499,0.071,-0.65889,-1.60222,-0.10667,-1.406,-0.193,0.419,1.45556,2.87,-0.31556
44357,-0.913,-0.16,0.052,-0.51111,-1.35333,0.12556,-0.968,-0.15,0.093,-2.26,1.75,-0.67
44458,-0.937,0.379,0.053,-1.78333,-0.65,0.02,-0.482,0.013,-0.041,-1.41778,0.71444,-0.23333
44561,-0.909,0.171,0.037,-0.35889,-1.03667,-0.2,-0.571,0.192,-0.149,-0.03,-1.29,-0.33444
44648,-0.88,0.53,0.074,-0.95333,-0.44,-0.04444,-1.816,-0.485,-0.912,-2.11,-0.90667,0.25667
44760,-1.284,0.256,-0.254,-0.88889,0.44222,0.13556,-1.33,-0.299,0.512,-1.49778,-1.61333,-0.00556
44856,-1.493,0.145,0.157,0.69444,3.06,0.48222,-0.44,-0.034,0.708,0.79556,-1.19556,-0.38778
44952,-1.02,0.376,0.245,2.15222,2.47556,0.66889,-0.943,0.172,0.112,1.19667,-0.77111,-0.60889
45056,-0.679,0.032,-0.079,1.31556,1.36111,0.34111,-0.906,-0.235,0.24,1.76556,-0.62333,-0.14889
45161,-0.415,-0.092,0.028,0.14889,-0.38,0.03222,-0.906,-0.183,0.27,0.44,-0.79,0.09444
45259,-1.39,0.367,-0.84,-0.35111,-2.95444,-0.87111,-1.06,-0.169,-0.002,0.88222,-0.75222,0.22444
45358,-0.251,-0.207,-0.349,0.12667,-0.27111,0.22333,-1.295,-0.102,-0.147,0.49111,-0.00889,-0.11222
45459,-0.431,-0.494,0.603,-1.44,-0.17556,1.01444,-1.192,0.143,0.047,-0.42889,2.98222,0.28556
45557,-0.893,0.422,0.231,-1.12667,-0.76556,0.25,-1.11,-0.211,0.177,-1.66222,2.21444,-0.95444
45649,-0.866,0.175,0.149,-1.55333,-0.79333,0.05,-0.763,0.022,0.034,-1.50444,1.62,-0.3
45763,-0.911,0.304,0.083,0.18444,-1.11667,-0.19889,-0.578,-0.016,0.196,-0.89889,0.11556,-0.02
45859,-0.921,0.278,-0.073,-0.86222,-0.74,-0.15778,-1.092,-0.282,-0.536,1.03111,-1.47222,0.63111
45952,-1.066,0.293,0.029,-0.38444,-0.35,0.20222,-0.627,-0.064,-0.402,1.65111,0.76556,-0.60556
46059,-1.459,0.246,0.028,-0.44556,1.38444,0.16111,-1.564,0.343,-0.686,-1.22889,-1.42222,0.31
46157,-1.417,0.48,0.154,0.15333,2.76667,0.89333,-1.45,-0.646,-0.028,0.39889,-1.28889,0.44444
46258,-1.079,0.108,0.146,3.21778,1.82778,0.43444,-0.949,0.141,-0.11,0.36778,-0.55,-0.29778
46358,-0.463,0.018,-0.007,0.33333,0.96444,0.3,-0.9,-0.267,0.194,0.96111,-0.55,0.00333
46461,-0.376,-0.119,-0.308,-0.43889,-1.21556,-0.26889,-0.926,-0.085,0.06,-0.01444,-0.98889,0.12
46564,-1.608,0.528,-1.054,0.89889,-0.19,0.15111,-1.026,-0.367,0.154,0.75,-0.44333,0.14111
46665,-0.885,0.119,-0.021,0.04,-0.67778,0.12778,-1.309,-0.277,-0.075,0.47889,0.49,-0.15
46767,-1.069,0.312,-0.164,-1.05444,-1.42444,-0.11,-1.396,0.321,0.048,-0.84889,3.13444,0.31778
46859,-0.924,0.039,-0.094,0.10778,-1.37111,0.01667,-1.042,-0.357,0.254,-1.14556,2.25,-0.83
46958,-0.846,0.256,0.137,-1.58889,-1.01778,0.02667,-0.584,-0.099,-0.072,-1.54667,1.26667,-0.33778
47058,-0.908,0.282,0.041,-0.71667,-0.73556,-0.09333,-0.541,0.116,0.101,-1.05889,-0.31222,-0.02222
47161,-0.91,0.367,-0.027,-0.48222,-0.85778,-0.13333,-1.177,-0.124,-0.52,1.23,-1.64556,0.31222
47257,-1.008,0.129,0.06,-0.73778,-0.33222,0.17444,-0.709,-0.068,-0.307,1.24667,-0.32444,-0.38444
47366,-1.226,0.152,-0.112,-0.52556,1.49,0.02,-1.673,0.134,-0.547,-1.83,-1.75444,-0.24
47459,-1.372,0.511,0.253,0.10667,2.52556,1.05667,-0.994,0.051,0.307,-0.49556,-1.45556,0.37889
47562,-1.07,0.232,0.083,3.00889,1.80444,0.54444,-0.903,0.138,0.098,0.38889,-0.45889,-0.43778
47657,-0.527,0.027,-0.033,1.00667,1.03,0.39667,-0.971,-0.25,0.272,1.88111,-0.62,-0.03778
47761,-0.477,-0.193,-0.213,-0.15,-0.97,-0.11556,-0.917,-0.112,0.11,0.61222,-0.71667,0.09444
47863,-1.857,0.308,-0.861,0.80222,-1.69667,-0.58667,-1.0,-0.414,0.077,0.97778,-0.63444,0.20111
47961,-0.944,0.206,-0.252,0.38667,-0.39889,0.11333,-1.306,-0.308,-0.076,0.72,-0.01444,-0.01
48057,-1.066,-0.346,0.538,-1.53556,-0.88444,-0.15444,-1.22,0.294,-0.027,-0.37222,2.88778,0.27222
48159,-0.988,0.009,-0.013,-0.48,-1.43333,0.05,-1.055,-0.262,0.268,-1.72,2.31333,-0.78222
48260,-0.866,0.223,0.062,-1.75333,-0.87,0.07778,-0.674,-0.069,0.029,-1.66444,1.80444,-0.50778
48358,-0.884,0.269,0.043,-0.39778,-0.87889,-0.26889,-0.491,0.062,0.097,-0.48444,0.13778,-0.02556
48459,-0.89,0.259,-0.13,-0.75556,-0.72,-0.02222,-0.988,-0.117,-0.558,0.57667,-1.86889,0.60556
48562,-1.082,0.269,0.111,-0.59444,-0.31222,0.10111,-1.072,-0.207,-0.321,1.91667,-0.19333,-0.57333
48659,-1.451,0.176,-0.046,-0.30667,1.94333,0.05,-0.634,0.555,0.219,-1.59111,0.25333,-0.21778
48756,-1.333,0.374,0.062,-0.57,2.55667,0.98889,-1.331,-0.764,-0.161,-0.04444,-0.72,0.25
48861,-0.944,0.037,-0.007,3.54111,1.69778,0.63889,-0.943,-0.063,-0.071,0.76444,-0.39333,-0.29444
48960,-0.565,0.023,0.012,1.04556,0.53778,0.20667,-0.866,-0.247,0.183,0.43,-0.70444,-0.01333
49062,-0.399,-0.165,-0.477,-0.29111,-1.32444,-0.10222,-1.053,-0.058,-0.072,0.11556,-1.21556,0.14
49151,-1.099,0.143,-0.628,0.34778,-0.03889,0.23111,-1.088,-0.262,0.178,0.77,-0.18556,0.03889
49259,-1.721,0.919,-0.542,-0.19333,-0.80333,0.06333,-1.27,-0.158,-0.04,0.67222,0.52,-0.04333
49358,-1.223,0.331,-0.14,0.65667,-1.01333,-0.33667,-1.327,0.021,0.317,0.26333,3.11778,0.03667
49461,-0.927,0.178,0.024,-0.64778,-1.37,0.16333,-0.975,-0.233,0.216,-2.22556,1.82222,-0.86
49548,-0.895,0.155,0.112,-1.48778,-0.95333,0.04556,-0.502,0.12,-0.013,-1.63667,0.99889,-0.52667
49658,-0.95,0.248,0.082,-0.66778,-0.87111,-0.21,-0.575,0.086,0.056,-0.21333,-0.55,-0.23
49760,-1.007,0.415,-0.191,-0.77222,-0.83333,-0.12444,-1.374,-0.439,-0.939,0.00222,-1.21444,0.55889
49858,-1.248,0.311,-0.085,-0.95,0.01222,0.29667,-0.498,-0.091,-0.069,-0.85667,-0.19444,-0.15556
49956,-1.185,0.138,0.031,0.53111,2.51556,0.26222,-0.578,0.345,0.434,0.82889,-0.87889,-1.03
50056,-1.222,0.425,0.143,0.68111,2.31444,0.89556,-1.098,-0.618,-0.205,0.68111,-0.57111,-0.34222
50157,-0.82,-0.001,-0.018,2.87111,1.53111,0.49111,-0.878,0.006,-0.068,0.86111,-0.46444,-0.15778
50259,-0.429,0.011,0.015,0.63889,0.36222,0.11667,-0.933,-0.238,0.1,0.25222,-0.78556,0.02
50348,-0.64,0.127,-0.568,-0.98333,-1.60778,-0.67,-0.978,-0.138,-0.012,0.33444,-1.02,0.09111
50458,-0.72,-0.01,-0.617,0.46889,0.66889,0.64778,-1.084,-0.097,0.205,0.52889,-0.23333,0.03444
50558,-1.638,0.619,-0.391,2.39,-0.11,0.18889,-1.422,-0.129,-0.016,0.28667,1.84,0.06333
50653,-1.21,0.911,0.141,-0.28111,-0.88778,-0.26778,-1.371,-0.388,0.441,1.81667,2.35667,-0.89889
50756,-0.996,0.114,0.015,-1.16,-1.13778,0.18333,-1.038,0.104,0.073,-2.52667,1.65889,-0.43
50858,-0.911,0.316,0.163,-1.57778,-0.78333,-0.01889,-0.566,0.061,0.087,-1.15667,0.74889,-0.12222
50953,-0.923,0.145,0.055,-0.40333,-0.89111,-0.22667,-0.447,0.237,-0.037,0.58333,-1.04889,0.01889
51059,-1.022,0.374,0.062,-0.77667,-0.66,-0.06778,-1.631,-0.078,-1.102,-1.53889,-1.01556,0.21778
51160,-1.247,0.506,-0.104,-1.12,0.21111,0.07222,-0.983,-0.018,0.098,-1.86556,-1.54667,0.25
51262,-1.579,0.024,0.238,-0.06889,3.26778,-0.03,-0.628,-0.185,0.474,1.20222,-0.60556,-0.58889
51352,-1.005,0.392,0.142,1.65889,2.13,0.99667,-0.915,-0.6,-0.248,1.53444,-0.19,-0.75556
51459,-0.685,-0.084,-0.089,1.76111,1.28333,0.49,-0.906,-0.155,0.01,0.71111,-0.48,-0.05333
51555,-0.468,-0.038,0.075,0.19556,0.09,0.00222,-0.892,-0.212,0.123,-0.47556,-0.84,0.03889
51658,-1.167,0.417,-1.001,-0.58556,-1.83556,-0.73,-1.033,-0.131,0.005,0.27,-0.91333,0.06333
51755,-0.766,-0.297,-0.618,-0.51889,0.03778,0.32444,-1.386,0.016,0.122,0.79444,-0.00889,-0.05
51856,-0.508,-0.52,0.201,-0.08222,0.00111,0.98778,-1.198,0.229,-0.162,0.44222,2.13778,0.32556
51956,-1.157,0.794,0.129,-0.77667,-1.11444,0.00556,-1.427,-0.553,0.327,1.62778,2.15778,-0.75
52058,-0.972,0.052,0.039,-1.38444,-1.24667,0.05556,-0.988,-0.003,-0.031,-2.36222,1.26,-0.76111
52158,-0.935,0.296,0.081,-1.30333,-1.06889,-0.22889,-0.56,0.083,0.108,-1.86,0.44333,-0.27111
52256,-0.987,0.239,-0.089,-0.22111,-1.05778,-0.26889,-0.579,0.206,-0.263,0.44,-1.17333,-0.15556
52358,-0.924,0.465,0.126,-0.89,-0.37222,-0.02222,-1.39,0.227,-0.62,-0.62111,-0.52667,-0.29
52457,-1.544,0.367,0.109,-0.86667,1.21556,0.17444,-2.353,-0.442,0.233,-1.45,-1.82444,0.41667
52557,-1.354,0.083,0.166,0.01556,2.93111,0.87778,-1.107,-0.497,0.514,0.50889,-1.30111,0.43556
52660,-1.042,0.185,0.198,3.10667,2.13556,0.47889,-1.0,0.248,0.013,1.07444,-0.57444,-0.52333
52759,-0.485,0.018,-0.042,0.71667,1.13,0.36222,-0.928,-0.329,0.275,1.07,-0.59,-0.04778
52856,-0.329,-0.124,-0.175,-0.04444,-0.87,-0.05222,-0.975,-0.091,0.146,0.24778,-0.88333,0.05889
52960,-2.062,0.346,-1.18,0.11,-1.71778,-0.51,-1.026,-0.397,0.116,1.13889,-0.54111,0.06333
53056,-0.98,-0.063,-0.628,0.09222,-0.39889,0.04556,-1.249,-0.209,-0.18,0.60556,0.02556,-0.03
53159,-0.747,-0.643,0.547,-1.21222,-0.90333,0.44,-1.136,0.315,-0.12,-0.42,2.62111,0.33778
53257,-0.886,0.226,-0.041,0.03,-1.15444,-0.05222,-1.17,-0.371,0.175,-0.32,2.28444,-0.97333
53362,-0.866,0.103,0.031,-1.15556,-1.20444,0.04222,-0.835,-0.056,0.029,-2.04889,1.48,-0.71111
53461,-0.895,0.292,0.009,-0.97333,-1.01667,-0.31889,-0.492,0.124,0.163,-1.30556,0.19,-0.14
53549,-0.985,0.258,-0.199,-0.18778,-1.04222,-0.18889,-0.971,-0.145,-0.542,1.02,-1.59,0.31111
53648,-1.006,0.351,0.17,-0.82556,-0.31889,0.20667,-0.959,-0.084,-0.475,2.18556,-0.04,-0.50444
53757,-1.375,0.274,-0.07,-0.73,1.44,0.08889,-1.761,0.049,-0.52,-2.00333,-0.81,0.29
53858,-1.393,0.256,0.168,-0.03444,2.84556,0.84111,-1.269,-0.29,0.228,-0.13667,-1.30889,0.42333
53957,-1.08,0.224,0.11,3.23667,1.77222,0.65,-0.934,0.137,0.063,1.1,-0.49111,-0.52889
54064,-0.509,-0.107,-0.065,1.11222,0.75778,0.29,-0.874,-0.306,0.226,1.39444,-0.68333,-0.08778
54160,-0.415,-0.156,-0.155,-0.28,-0.91667,-0.19444,-1.02,-0.088,0.0,-0.14667,-1.10556,0.13667
54259,-2.027,0.698,-1.521,0.23778,-1.48778,-0.38889,-1.048,-0.454,0.086,1.12,-0.22778,0.1
54361,-1.163,0.128,-0.035,0.73,-0.74556,0.17,-1.327,-0.126,-0.007,0.55111,0.55111,-0.11667
54456,-0.957,-0.101,0.338,-0.74,-0.54889,-0.15,-1.343,-0.102,0.252,0.69333,3.37444,0.30111
54561,-1.068,0.036,-0.112,0.25111,-1.11444,0.02444,-1.037,-0.099,0.151,-2.68333,2.07778,-0.62444
54662,-0.886,0.098,0.061,-1.62889,-0.98889,0.01,-0.602,0.016,-0.005,-1.13333,1.49556,-0.38444
54762,-0.888,0.326,0.025,-0.97,-0.98111,-0.21667,-0.459,0.056,0.062,-0.30222,-0.04,0.0
54857,-0.944,0.355,-0.216,-0.76,-1.18556,-0.35333,-0.888,-0.208,-0.53,0.80444,-2.03222,0.34111
54959,-1.271,0.281,0.011,-0.37,-0.24667,0.25,-0.422,0.203,-0.324,0.87889,0.39111,-0.33
55056,-1.387,-0.051,-0.017,0.16,2.61,0.1,-0.585,0.303,0.299,-1.22222,0.58111,-0.11333
55158,-1.281,0.353,0.087,0.11222,2.65,0.86111,-1.053,-0.509,-0.282,-0.02,-0.40222,0.12
55256,-0.771,0.091,0.009,2.64111,1.94556,0.44444,-0.908,0.061,-0.068,0.80556,-0.41889,-0.2
55359,-0.378,-0.001,-0.006,0.38556,0.20111,0.07111,-0.914,-0.333,0.127,0.64444,-0.73222,0.03
55457,-0.706,0.184,-0.634,-0.84778,-1.81444,-0.12667,-0.907,-0.015,0.003,0.05889,-1.21667,0.04222
55549,-1.045,-0.079,-0.52,1.06,-0.17111,0.49889,-1.069,-0.328,0.233,0.70556,-0.24556,-0.01444
55660,-1.25,0.65,-0.39,1.52,-0.23444,0.22111,-1.319,-0.246,-0.085,0.80556,0.96889,0.20333
55758,-0.716,0.518,0.31,-0.67667,-0.99111,0.35222,-1.336,-0.079,0.318,-0.40556,3.05556,0.02111
55857,-0.926,0.171,0.054,-0.70444,-1.58222,0.20556,-1.059,-0.057,0.179,-1.91444,1.84556,-0.6
55957,-0.895,0.204,0.088,-1.2,-1.23667,-0.20889,-0.476,0.015,0.017,-1.47889,1.09222,-0.48111
56061,-0.96,0.245,0.004,-0.25,-0.90444,-0.23778,-0.48,0.11,0.021,-0.09333,-0.58111,-0.09111
56158,-0.922,0.355,0.02,-1.02889,-0.56333,0.0,-1.391,-0.348,-0.813,-0.08222,-1.44222,0.43333
56259,-1.366,0.269,-0.167,-0.86667,-0.18556,0.22889,-0.559,0.222,-0.171,-1.34,-0.74,-0.02778
56355,-1.291,-0.011,-0.083,0.88778,3.10333,0.17556,-0.693,0.195,0.049,0.92889,-0.77667,-0.89222
56462,-1.237,0.56,0.151,1.12222,2.59,1.00667,-1.097,-0.384,-0.319,-0.03,-0.59333,-0.06444
56556,-0.734,-0.053,-0.148,2.00111,1.65,0.30222,-0.915,-0.058,0.008,0.99333,-0.56111,-0.10778
56659,-0.424,-0.009,0.007,0.29556,-0.09222,0.12,-0.867,-0.152,0.122,0.42222,-0.64556,-0.05889
56756,-0.587,0.29,-0.437,-0.47667,-1.94667,-0.68889,-0.884,-0.104,0.039,0.37333,-0.99111,0.02556
56854,-0.854,0.16,-0.557,-0.05778,-0.16556,0.62444,-1.137,-0.169,0.078,0.93333,-0.14111,-0.01
56955,-1.501,0.761,-0.28,2.12889,-0.19,0.48444,-1.459,-0.111,-0.034,0.28778,1.52778,0.04556
57058,-1.118,0.866,0.365,-1.13444,-1.21444,-0.05889,-1.41,-0.485,0.537,1.85778,2.47556,-0.59667
57165,-0.914,0.075,0.011,-1.10778,-1.26889,0.08111,-1.032,0.038,0.081,-2.95556,1.56222,-0.49222
57261,-0.916,0.283,0.025,-1.30778,-0.94333,-0.17444,-0.476,0.092,0.05,-1.25556,0.83444,-0.18667
57362,-0.929,0.199,-0.019,-0.17,-0.99444,-0.30222,-0.55,0.175,-0.191,0.79444,-0.92444,-0.20111
57463,-0.896,0.412,0.045,-0.87444,-0.38111,-0.07778,-1.691,-0.368,-0.936,-1.83667,-1.4,0.46444
57557,-1.166,0.193,-0.25,-0.68889,0.21444,0.13889,-0.859,0.123,0.473,-1.27222,-1.12222,0.09333
57657,-1.424,-0.048,0.03,1.73889,2.94667,0.38889,-0.541,-0.123,0.702,2.02667,-1.27111,-0.53333
57759,-1.064,0.375,0.188,1.52111,2.45556,0.73889,-1.012,0.069,-0.137,0.59667,-0.8,-0.62
57858,-0.588,0.061,-0.128,1.54222,1.29667,0.42333,-0.916,-0.273,0.218,1.72333,-0.38444,-0.18333
57963,-0.466,-0.064,0.028,0.46,-0.36889,0.00444,-0.891,-0.127,0.186,0.50111,-0.68333,0.02889
58064,-1.13,0.414,-0.761,-0.27444,-2.11444,-0.87889,-0.981,-0.248,0.008,0.51444,-1.0,0.12556
58159,-0.559,-0.149,-0.437,-0.94111,0.48,0.70556,-1.345,-0.112,-0.01,0.72,-0.19889,-0.09
58263,-0.662,-0.138,-0.03,-0.1,0.5,0.97222,-1.18,0.138,-0.06,-0.28444,2.46444,0.27
58357,-0.907,0.49,0.312,-0.95667,-0.78667,-0.19,-1.496,-0.438,0.269,0.95222,2.33667,-0.83444
58459,-1.017,0.159,-0.004,-1.16778,-1.26111,0.08333,-0.98,0.004,0.002,-2.38444,1.58111,-0.29778
58557,-0.874,0.326,0.077,-1.01444,-1.13,-0.17889,-0.474,-0.053,0.169,-1.28444,0.49,-0.16111
58655,-0.954,0.197,0.002,-0.39556,-1.10333,-0.40667,-0.666,-0.016,-0.356,1.31889,-1.08667,-0.13111
58748,-0.976,0.322,0.105,-0.97,-0.38444,0.09222,-1.391,0.189,-1.063,-1.15222,-0.57444,-0.05444
58857,-1.207,0.338,-0.07,-0.91778,0.58,0.22444,-1.528,-0.51,0.54,-1.89,-1.16667,0.21444
58955,-1.397,0.045,0.207,0.33,3.18889,0.35667,-0.435,0.045,0.859,1.41,-0.68,-0.44
59057,-0.934,0.441,0.218,2.74889,2.13778,0.73667,-1.066,-0.169,0.058,1.30333,-1.15,-0.49667
59158,-0.67,-0.075,-0.106,1.49778,1.32,0.42778,-0.935,0.012,-0.054,1.40444,-0.4,-0.11889
59255,-0.447,0.041,-0.058,0.11667,-0.47667,-0.00889,-0.937,-0.251,0.192,0.23556,-0.86333,0.01889
59357,-1.358,0.279,-0.84,-0.29778,-2.37556,-1.17333,-1.018,-0.159,-0.01,0.83889,-0.81444,0.05889
59448,-0.931,-0.043,-0.46,0.21667,-0.04,0.09444,-1.346,-0.142,-0.025,0.35111,0.08444,-0.11889
59554,-0.357,-0.459,0.242,-1.76333,0.08,1.01444,-1.13,0.271,-0.02,-0.16889,2.41444,0.31444
59651,-1.005,0.609,0.216,0.28222,-1.00111,0.00111,-1.367,-0.397,0.291,0.94444,2.19,-1.10111
59758,-0.97,0.085,0.004,-1.27778,-1.19889,0.07333,-0.876,-0.063,0.0,-2.09111,1.48,-0.59
59856,-0.936,0.296,0.035,-0.99556,-0.91222,-0.19333,-0.562,0.078,0.127,-1.28333,0.25111,-0.01
59960,-0.948,0.119,-0.03,-0.25556,-0.99556,-0.19556,-0.788,-0.015,-0.538,1.22889,-1.41444,0.16222
60053,-1.018,0.437,0.091,-0.83,-0.43778,0.15111,-1.335,0.121,-0.829,0.44222,-0.03,-0.37778
60155,-1.387,0.322,-0.032,-1.16889,1.04778,0.10556,-2.164,-0.176,0.156,-2.19,-1.80778,0.47667
60254,-1.496,0.05,0.17,0.14667,3.22111,0.54333,-0.609,-0.026,0.736,0.36556,-1.2,-0.12
60358,-0.959,0.367,0.178,2.74333,2.04222,0.76556,-0.953,0.215,0.162,0.87556,-0.96,-0.65444
60458,-0.607,-0.029,-0.105,1.32556,1.09,0.40556,-0.923,-0.234,0.228,2.13778,-0.51889,-0.10222
60559,-0.404,-0.103,-0.072,0.08778,-0.71556,0.06667,-0.956,-0.174,0.096,-0.05,-0.90111,0.05111
60656,-1.511,0.501,-1.069,-0.26222,-2.24556,-0.92111,-1.02,-0.221,0.057,0.87556,-0.72778,0.10444
60759,-0.854,-0.158,-0.31,-0.20667,-0.77778,-0.02556,-1.225,-0.139,-0.089,0.68556,0.14,-0.11444
60860,-0.338,-0.783,0.92,-1.81111,-0.12333,0.71889,-1.101,0.415,-0.107,-0.36444,2.57889,0.27889
60956,-0.791,0.059,0.129,-0.05111,-0.87,0.16667,-1.266,-0.467,0.2,-0.56,2.30444,-0.84556
61056,-0.902,0.149,0.06,-1.41556,-1.06222,0.00111,-0.81,0.008,-0.015,-1.83778,1.63,-0.47333
61158,-0.914,0.265,0.029,-0.51556,-1.01444,-0.30667,-0.48,0.024,0.122,-0.83333,0.21222,-0.01222
61258,-0.967,0.321,-0.202,-0.54111,-1.06111,-0.27444,-0.816,-0.1,-0.422,1.15222,-1.83889,0.42
61356,-1.023,0.445,0.171,-0.73778,-0.18333,0.19,-1.197,-0.344,-0.382,1.64,-0.12667,-0.58
61459,-1.583,0.064,-0.145,-0.04444,1.89111,0.14778,-1.005,0.495,-0.264,-1.64444,-0.20333,0.09889
61556,-1.441,0.363,0.156,0.18333,2.56222,0.96889,-1.335,-0.745,-0.171,0.0,-0.91,0.14667
61656,-0.882,0.071,-0.036,2.76444,1.91222,0.44,-0.933,0.091,-0.128,0.26667,-0.52333,-0.22667
61755,-0.375,-0.009,-0.01,0.36222,0.57778,0.23556,-0.902,-0.241,0.162,0.3,-0.67333,-0.06667
61854,-0.462,-0.029,-0.418,-0.76,-1.40778,-0.45,-0.898,-0.086,0.039,0.13667,-0.95778,-0.01667
61957,-1.214,0.426,-0.917,-0.25333,-0.31778,0.31111,-1.076,-0.431,0.151,0.91,-0.32333,0.06
62058,-1.425,0.312,-0.458,1.62,-0.64333,0.30111,-1.445,-0.219,-0.051,0.46333,0.78889,-0.00778
62156,-0.947,0.631,-0.052,-0.39778,-0.70889,0.01222,-1.34,-0.33,0.375,0.14778,3.33111,0.25444
62257,-0.902,-0.039,0.021,-1.28444,-1.33556,0.11778,-1.047,-0.123,0.17,-2.50889,1.85444,-0.60444
62349,-0.867,0.237,0.122,-1.45778,-1.12778,-0.06444,-0.465,0.034,0.035,-1.43889,1.02111,-0.36
62456,-0.942,0.291,0.034,-0.51889,-1.02333,-0.32667,-0.47,0.166,0.237,0.23556,-0.67,-0.01
62562,-0.994,0.438,-0.034,-0.39333,-0.72,-0.20667,-2.031,-0.502,-1.34,-0.76333,-0.96889,0.18111
62657,-1.256,0.3,-0.03,-0.57111,-0.21556,0.14667,-0.716,0.019,-0.03,-1.65,-0.83667,0.14
62756,-1.399,0.073,-0.105,0.75333,2.11,0.12444,-0.627,0.103,0.629,1.90444,-1.04222,-0.87889
62848,-1.275,0.454,0.167,0.29444,2.68889,0.80778,-1.091,-0.583,-0.232,0.37667,-0.27556,-0.08667
62958,-0.944,0.197,-0.07,2.24,1.93111,0.74778,-0.936,0.051,-0.108,-0.07556,-0.53778,-0.13
63057,-0.333,0.014,-0.055,0.45444,0.58444,0.05778,-0.88,-0.132,0.171,1.04889,-0.59556,-0.10333
63152,-0.425,0.151,-0.337,-0.33,-1.26778,-0.63889,-0.962,-0.164,-0.001,0.17333,-1.14778,0.10778
63249,-0.912,0.344,-0.579,0.31667,0.35,0.38333,-1.136,-0.269,0.27,0.94556,-0.24556,0.03778
63356,-1.182,0.395,-0.305,-0.30889,-0.88778,0.05333,-1.318,-0.267,-0.059,0.69111,0.56222,0.02222
63458,-0.971,0.138,-0.03,-0.37556,-0.97222,-0.26667,-1.342,-0.041,0.294,-0.36,3.27,0.14111
63558,-0.934,0.051,-0.08,0.15444,-1.38,0.05222,-0.998,-0.155,0.306,-2.37,2.05667,-0.74889
63657,-0.888,0.296,0.11,-1.32444,-1.12222,-0.08444,-0.597,0.026,-0.008,-1.56222,1.32,-0.54667
63757,-0.936,0.147,-0.004,-0.70889,-0.98,-0.32444,-0.422,0.132,0.138,-0.33,-0.29444,-0.09556
63859,-0.911,0.292,-0.122,-0.52111,-0.92333,-0.1,-1.383,-0.278,-0.695,0.23,-1.68,0.71111
63955,-1.159,0.287,0.088,-0.64556,-0.25444,0.28444,-0.74,0.019,-0.376,1.51,-0.26444,-0.29333
64058,-1.293,0.061,-0.103,0.07889,2.09778,0.16556,-0.889,0.291,0.054,0.45667,-0.37889,-0.33111
64156,-1.471,0.399,0.125,0.23,2.81,0.89889,-1.157,-0.763,-0.186,-0.53667,-0.52111,0.19222
64251,-0.955,0.229,0.008,2.66,1.98778,0.53111,-0.941,-0.059,-0.077,0.32,-0.54778,-0.26333
64355,-0.351,-0.045,0.018,0.84222,0.41444,0.15778,-0.874,-0.222,0.094,0.58444,-0.61444,-0.14667
64458,-0.538,-0.054,-0.251,-0.64667,-1.6,-0.32,-0.95,-0.04,0.053,0.09111,-1.14667,0.16
64556,-1.172,0.19,-0.65,0.39667,-0.32778,0.44444,-1.147,-0.314,0.236,0.89333,-0.24556,0.01889
64660,-1.336,0.233,-0.137,2.21,-0.83667,0.08444,-1.368,-0.153,-0.1,0.57778,0.89111,0.01444
64757,-1.073,0.539,-0.081,-0.03667,-1.09444,-0.10111,-1.277,-0.276,0.312,0.06,3.10556,0.02778
64858,-1.006,0.174,-0.034,-1.18,-1.20667,0.09,-1.058,-0.071,0.153,-2.4,1.82333,-0.7
64958,-0.913,0.24,0.115,-1.24778,-1.00556,-0.06,-0.606,0.035,0.032,-1.44333,1.14444,-0.44111
65059,-0.863,0.184,0.125,-0.39,-1.00444,-0.42444,-0.496,0.196,-0.014,0.0,-0.25222,0.18444
65159,-0.953,0.411,-0.017,-0.59778,-0.59111,0.01778,-1.313,-0.223,-0.728,0.35222,-1.61667,0.68667
65256,-1.315,0.283,0.02,-0.37,-0.27556,0.20778,-0.715,0.028,-0.2,-0.62222,-0.34667,-0.11778
65356,-1.187,0.021,-0.051,-0.07556,2.27556,0.06778,-0.649,0.225,0.513,0.72778,-0.64,-0.51889
65455,-1.438,0.448,0.171,0.34778,2.55889,0.93,-1.103,-0.66,-0.059,0.00778,-0.49111,-0.08778
65556,-0.813,0.096,-0.06,2.67667,1.94556,0.47556,-0.904,-0.002,-0.069,0.96333,-0.43111,-0.22
65652,-0.359,-0.01,0.046,0.42667,0.51778,0.11667,-0.874,-0.242,0.135,0.44889,-0.62111,-0.02444
65756,-0.511,0.194,-0.491,-0.59333,-1.60444,-0.60333,-0.967,-0.034,-0.074,0.22111,-1.3,0.11333
65855,-0.927,0.27,-0.437,0.86111,1.05667,0.69333,-1.183,-0.166,0.281,0.46,-0.28111,-0.00889
65956,-1.233,0.588,-0.319,1.02889,-0.49667,0.14556,-1.341,-0.265,-0.078,1.06,0.65,0.13444
66054,-0.92,0.39,-0.015,0.39667,-0.69,-0.11111,-1.295,0.065,0.204,-0.53333,3.08222,0.19556
66157,-0.917,0.249,0.027,-0.52,-1.37667,0.10111,-1.079,-0.097,0.178,-1.67889,2.17889,-0.91111
66257,-0.864,0.19,0.087,-1.46667,-1.14,0.0,-0.549,0.041,0.023,-1.66333,1.46222,-0.56889
66356,-0.975,0.322,-0.033,-0.57444,-1.00556,-0.24889,-0.488,0.188,0.104,-0.35556,-0.38333,-0.06222
66448,-0.94,0.379,-0.073,-0.54889,-0.87556,-0.12889,-1.288,-0.4,-0.725,0.67222,-1.55778,0.45111
66554,-1.166,0.235,0.055,-0.84889,-0.27889,0.24556,-0.671,0.068,-0.17,-0.01111,-0.29444,-0.18111
66654,-1.338,0.26,-0.022,-0.57222,1.74333,0.03556,-0.958,0.291,-0.125,-0.69556,-0.23222,-0.31222
66748,-1.395,0.311,0.095,0.54889,2.49444,0.95,-1.207,-0.551,-0.018,-0.05222,-0.72778,0.19333
66852,-1.048,0.128,0.023,2.52,1.97222,0.48,-0.975,0.09,-0.119,0.04667,-0.47444,-0.22333
66955,-0.409,0.046,0.015,0.55111,0.78,0.19,-0.894,-0.259,0.174,0.81778,-0.63,-0.04222
67058,-0.423,-0.096,-0.24,-0.07667,-1.13,-0.23778,-0.941,-0.063,0.006,-0.16667,-1.06778,0.07333
67157,-1.291,0.322,-0.78,1.07889,0.42667,0.32111,-1.074,-0.414,0.21,0.66111,-0.32778,0.14
67256,-1.382,0.601,-0.282,1.24778,-0.12,0.25222,-1.443,-0.195,0.051,0.83,0.84667,-0.04222
67354,-0.865,0.423,-0.267,0.52222,-0.63333,-0.00111,-1.383,0.082,0.132,0.29556,3.29778,0.12
67457,-0.993,0.229,-0.041,-0.82889,-1.29444,0.16444,-0.925,-0.185,0.239,-2.36222,1.83222,-0.65
67556,-0.87,0.28,0.094,-1.25,-1.20222,-0.13778,-0.589,0.025,-0.033,-1.35,0.93111,-0.51667
67659,-0.907,0.263,0.028,-0.55,-0.90333,-0.31,-0.475,0.14,0.118,-0.37667,-0.32778,-0.21222
67756,-0.911,0.253,-0.025,-0.54222,-0.77222,-0.16444,-1.268,-0.41,-0.677,0.38222,-0.85778,0.48222
67857,-1.059,0.156,0.061,-0.66,-0.51556,0.17222,-0.779,-0.062,-0.361,0.02333,-0.32111,-0.17556
67958,-1.375,0.133,-0.076,-0.68778,0.73222,0.08111,-2.049,0.137,-0.785,-0.87444,-1.21667,-0.07778
68057,-1.364,0.545,0.205,-0.03,2.68667,1.03111,-1.136,-0.072,0.246,0.55667,-1.32222,0.61444
68163,-1.108,0.297,0.164,2.82667,2.13889,0.66556,-0.967,0.197,-0.003,0.74333,-0.58889,-0.44778
68257,-0.473,-0.009,0.028,1.21222,1.23556,0.45778,-0.896,-0.197,0.303,2.17889,-0.55333,-0.07111
68357,-0.469,-0.103,-0.143,0.11556,-0.56222,-0.14222,-0.883,-0.027,0.149,0.27,-0.84,0.15778
68457,-1.643,0.325,-1.041,-0.01,-1.94,-1.00111,-1.094,-0.366,-0.01,0.98667,-0.75556,0.19
68557,-0.581,-0.138,-0.475,-0.44889,0.02889,0.06667,-1.335,-0.186,-0.044,0.57444,-0.19333,0.08333
68662,-0.663,-0.494,0.34,-2.40889,-0.21889,1.09556,-1.047,0.267,-0.009,-0.64778,2.12556,-0.07889
68756,-0.797,0.351,0.21,-0.47778,-0.99111,-0.03556,-1.299,-0.4,0.319,0.86778,2.28889,-0.98111
68856,-0.917,0.125,-0.024,-1.24,-1.16778,0.02667,-0.94,-0.004,0.075,-2.54,1.60111,-0.63667
68950,-0.926,0.319,0.015,-0.95222,-0.83,-0.08222,-0.591,0.148,0.153,-1.84444,0.45,-0.16444
69049,-0.901,0.176,0.0,-0.32778,-0.93333,-0.21,-0.716,-0.01,-0.367,1.46667,-0.47,0.19222
69154,-0.954,0.26,0.023,-0.51889,-0.73556,0.00667,-1.526,-0.183,-0.851,-1.01667,-1.22444,-0.08222
69254,-1.272,0.444,-0.169,-0.82889,-0.07444,0.04333,-0.834,0.083,0.228,-1.50333,-1.39333,0.01444
69350,-1.291,0.089,0.046,1.13,2.97333,-0.00222,-0.551,-0.118,0.752,-0.21556,-0.42889,-0.45222
69456,-1.145,0.214,0.215,1.57333,2.55111,0.87889,-0.929,-0.297,0.121,0.96556,-1.01667,-0.57444
69558,-0.698,0.048,-0.063,2.07889,1.87,0.51333,-0.907,-0.303,0.054,1.67556,-0.46556,-0.16
69657,-0.408,-0.135,0.02,0.65444,-0.13333,0.08111,-0.902,-0.092,0.105,0.33889,-0.69778,-0.06111
69748,-0.802,0.254,-0.583,-1.31444,-2.21667,-0.93333,-0.962,-0.219,0.02,0.83444,-0.73,0.09111
69858,-0.813,-0.153,-0.57,0.12444,0.49444,0.59,-1.311,-0.117,0.064,0.47778,0.06889,-0.07556
69954,-0.139,-0.657,0.277,0.84,0.66778,1.59111,-1.13,0.378,-0.213,-0.01,2.34889,0.56
70058,-0.977,0.463,0.137,-0.98,-0.94778,0.05333,-1.432,-0.493,0.229,-0.63778,2.12556,-0.71111
70148,-0.994,0.176,0.037,-1.59778,-1.35889,0.07333,-1.082,0.032,-0.013,-1.91333,1.27,-0.48
70257,-0.881,0.293,0.027,-1.19667,-1.24111,-0.21,-0.535,0.071,0.209,-1.84,-0.00222,-0.27333
70358,-0.989,0.323,-0.103,-0.07222,-0.64,-0.18444,-0.705,0.084,-0.063,1.39,-0.43111,0.18333
70459,-0.862,0.186,0.156,-0.02111,-0.65111,-0.11333,-1.251,-0.242,-1.021,-0.11,-0.53667,-0.21333
70551,-1.024,0.116,-0.017,-0.83,-0.40222,0.05333,-0.331,-0.075,-0.153,-1.73889,-0.21778,-0.18667
70653,-1.253,0.228,-0.076,-0.87,1.44333,0.07889,-2.385,-0.323,-0.178,-0.29444,-2.07,-0.00222
70755,-1.345,0.399,0.284,0.05667,2.43111,0.96889,-1.001,-0.097,0.369,0.37,-1.22222,0.43444
70857,-1.016,0.08,0.172,2.86222,1.69444,0.56,-0.97,0.151,0.015,0.23778,-0.53556,-0.32778
70948,-0.6,0.023,-0.039,0.8,0.84778,0.27,-0.941,-0.237,0.288,1.72667,-0.37444,-0.08556
71054,-0.718,0.004,-0.229,-0.07778,-0.64333,-0.00667,-0.946,-0.107,0.138,0.08889,-0.64222,0.02667
71150,-1.186,0.372,-0.464,0.12,-0.10556,-0.26778,-0.986,-0.215,0.193,0.16111,-0.67,0.15
71254,-0.777,0.075,-0.521,0.05,0.12667,0.33778,-0.959,0.016,0.243,0.51889,-0.46,-0.07778
71356,-0.667,0.144,-0.373,0.77333,-0.57556,0.15444,-1.036,-0.181,0.267,0.73778,-0.21111,0.01556
71453,-1.446,-0.073,-0.438,-0.47556,-0.98,-0.13111,-1.068,-0.287,0.416,0.59333,-0.20444,0.17
71556,-0.338,-0.357,-0.025,-0.60889,-0.28111,0.2,-1.056,0.014,0.089,0.19222,0.00222,0.00556
71655,-0.896,-0.1,0.067,-0.84778,-1.19444,0.28889,-1.071,0.012,0.169,-0.21444,1.27111,-0.16
71757,-1.041,0.428,0.051,-0.12333,-0.82,-0.04333,-1.25,-0.185,0.323,0.47333,2.61778,-0.23
71856,-0.957,0.031,0.02,-0.89667,-0.87,0.02778,-1.081,-0.13,0.181,-1.89667,1.67,-0.39
71957,-0.966,0.25,0.028,-1.11667,-0.52222,0.00778,-0.683,0.06,0.024,-1.98667,0.75556,-0.30222
72052,-0.993,0.311,0.038,-0.52333,-0.22667,-0.08667,-0.916,-0.059,-0.162,0.55667,0.09,0.01778
72155,-0.953,0.202,0.094,0.05222,-0.42556,-0.10889,-0.852,-0.051,-0.243,-0.02444,-0.46444,0.12444
72251,-0.945,0.207,0.09,-0.13333,-0.48444,-0.08778,-0.948,-0.156,-0.419,0.06889,-0.39333,-0.01111
72356,-0.892,0.235,0.115,-0.43111,-0.41222,-0.04111,-1.099,0.086,-0.145,0.15333,-0.54889,-0.11778
72454,-1.084,0.203,0.147,-0.28222,0.12667,0.12,-1.052,-0.096,-0.501,-1.88333,-0.78556,-0.06222
72556,-1.026,0.103,0.142,-0.88778,0.44444,-0.01444,-1.043,-0.15,-0.012,0.36,-0.52556,0.03667
72653,-1.058,-0.028,0.003,-0.00556,1.48,-0.09889,-0.923,-0.042,0.145,-0.05778,-0.57444,-0.11778
72750,-1.2,0.365,0.235,-0.94222,2.07,0.36556,-1.046,-0.199,0.199,-0.29556,-0.36667,0.09667
72854,-0.937,0.068,-0.003,1.71889,0.89667,0.36778,-0.98,-0.007,0.119,0.26111,-0.06667,-0.19222
72959,-0.604,0.065,-0.118,0.69556,-0.15222,0.20111,-0.996,-0.191,0.121,0.54,-0.10778,0.00889
73055,-1.03,0.203,-0.392,0.23889,-1.23778,0.08444,-1.061,-0.139,0.041,-0.17889,-0.23,-0.01667
73154,-1.078,-0.008,-0.326,0.32,-0.46556,0.0,-1.058,-0.135,0.178,0.74111,-0.15,-0.02
73257,-0.92,0.235,-0.007,-0.18222,-0.70111,-0.41222,-0.945,-0.122,0.112,0.61667,-0.03889,-0.02556
73352,-1.016,0.022,0.084,-0.29444,-0.72556,-0.23889,-1.014,-0.136,0.155,-0.09,-0.17889,0.10889
73453,-1.012,0.167,-0.022,-0.07222,0.03889,0.11667,-1.011,-0.052,0.167,-0.16111,0.04556,0.07111
73553,-0.977,0.191,0.121,0.03889,0.01556,0.02,-0.99,-0.083,0.159,0.06444,0.02,0.04889
73655,-0.986,0.108,0.083,0.02111,0.03444,0.03,-0.978,-0.08,0.136,0.06778,0.05111,0.01
73755,-0.985,0.124,0.088,0.02556,-0.00556,0.02222,-0.998,-0.104,0.119,-0.06333,0.03111,0.02
73848,-0.977,0.154,0.084,-0.01111,0.02111,0.03444,-0.984,-0.058,0.147,-0.01222,0.01,0.01556
73956,-0.981,0.134,0.091,0.07556,-0.02889,-0.00111,-0.99,-0.052,0.166,0.05222,0.00333,0.01667
74054,-0.97,0.145,0.114,0.00889,-0.00778,0.00667,-0.99,-0.079,0.145,-0.00111,-0.00444,0.02
74154,-0.978,0.14,0.095,-0.02333,0.02444,0.00778,-0.987,-0.068,0.155,0.00667,0.00667,0.00556
74261,-0.981,0.127,0.095,-0.00444,0.01333,0.00889,-0.985,-0.065,0.16,-0.02889,0.00778,0.00222
74352,-0.986,0.135,0.084,0.01,0.01,0.00333,-0.986,-0.07,0.152,-0.01444,0.01444,-0.00778
74448,-0.978,0.138,0.085,0.00444,0.01,0.01444,-0.989,-0.075,0.149,-0.00778,0.01111,0.0
74553,-0.976,0.135,0.085,-0.01556,0.02,0.00889,-0.987,-0.063,0.151,-0.02,0.00889,0.00222
74655,-0.978,0.148,0.073,-0.01778,-0.00333,0.00333,-0.991,-0.06,0.158,0.00444,0.00778,0.00111
74748,-0.977,0.144,0.086,0.00333,0.01111,0.00778,-0.988,-0.07,0.147,0.00667,0.0,0.0
74853,-0.981,0.142,0.08,0.01111,0.0,-0.00444,-0.995,-0.077,0.142,-0.00889,-0.00444,0.0
74952,-0.98,0.146,0.084,-0.01,0.00444,0.0,-0.989,-0.07,0.149,-0.00333,0.0,-0.00222
75057,-0.986,0.116,0.089,-0.06222,0.02222,-0.01,-0.993,-0.064,0.148,0.01778,-0.01,0.00778
75154,-0.98,0.158,0.084,-0.03111,0.01111,0.00222,-0.991,-0.079,0.149,-0.04333,0.01222,0.0
75255,-0.983,0.152,0.077,-0.04111,0.00333,-0.00444,-0.99,-0.068,0.143,0.00222,-0.01333,0.00444
75351,-0.98,0.146,0.078,-0.03111,0.01,0.00444,-0.983,-0.071,0.147,0.00556,-0.00889,0.0
75449,-0.98,0.134,0.082,-0.02222,-0.01,-0.00222,-0.991,-0.072,0.157,0.0,-0.02444,0.00556
75553,-0.981,0.138,0.081,-0.01,0.02,0.01,-0.992,-0.071,0.155,-0.01222,-0.01,0.00222
75657,-0.981,0.137,0.074,0.00111,0.00556,0.00444,-0.99,-0.067,0.158,-0.01333,-0.01,0.00667
75756,-0.979,0.139,0.077,-0.00333,0.00111,0.00778,-0.998,-0.076,0.149,-0.01889,-0.00556,0.0
75854,-0.98,0.135,0.078,0.0,0.00444,0.0,-0.988,-0.066,0.157,0.00222,-0.00111,0.0
75956,-0.983,0.13,0.078,-0.01222,0.00444,0.00222,-0.991,-0.072,0.156,0.00556,-0.01444,0.00556
76052,-0.982,0.146,0.07,0.00444,-0.00444,0.0,-0.988,-0.067,0.157,-0.01,-0.00333,-0.00444
76148,-0.979,0.142,0.07,0.01,0.00556,0.00333,-0.994,-0.069,0.157,0.01667,-0.00333,0.00111
76252,-0.974,0.132,0.071,0.01333,0.00444,0.00333,-0.989,-0.068,0.158,0.01222,-0.00333,0.00111
76349,-0.98,0.136,0.08,-0.00333,0.0,0.00111,-0.992,-0.067,0.157,-0.00889,-0.00667,0.0
76460,-0.981,0.139,0.073,-0.01444,0.00333,0.0,-0.992,-0.063,0.157,-0.00778,-0.00222,-0.00333
76555,-0.981,0.142,0.072,-0.01556,0.00222,0.0,-0.989,-0.068,0.159,0.0,0.0,-0.00111
76656,-0.985,0.132,0.077,0.02111,0.00111,0.0,-0.989,-0.069,0.158,0.00111,-0.00444,-0.00333
76750,-0.982,0.14,0.074,0.03,-0.01,-0.00556,-0.991,-0.079,0.159,-0.00667,-0.01,0.00333
76857,-0.979,0.142,0.071,-0.00889,0.00556,0.00444,-0.991,-0.071,0.151,-0.01444,0.00556,0.0
76954,-0.981,0.144,0.075,0.0,-0.00556,0.0,-0.986,-0.066,0.162,-0.00667,-0.00111,-0.00111
77056,-0.98,0.144,0.074,0.00889,-0.01,-0.00667,-0.992,-0.075,0.154,-0.00222,-0.00667,0.00111
77153,-0.983,0.14,0.081,0.0,0.0,-0.00222,-0.989,-0.075,0.153,-0.00333,0.0,-0.00111
77259,-0.984,0.137,0.075,0.00333,-0.00667,-0.00111,-0.987,-0.061,0.184,-0.02222,0.00444,-0.01
77348,-0.981,0.149,0.074,-0.01667,0.00111,-0.00444,-0.996,-0.082,0.163,0.03667,-0.00778,0.00556
77456,-0.978,0.14,0.074,-0.01111,-0.00667,-0.00111,-0.991,-0.06,0.163,0.03,0.0,-0.00333
77553,-0.98,0.141,0.079,0.04111,-0.00444,-0.00333,-0.987,-0.066,0.151,0.06222,0.00333,-0.01
77655,-0.98,0.133,0.084,0.01,-0.00889,-0.00444,-0.989,-0.088,0.152,0.02889,0.0,-0.00333
77755,-0.982,0.134,0.078,-0.01889,0.0,0.0,-0.99,-0.078,0.158,-0.02222,-0.00556,0.0
77854,-0.982,0.14,0.071,-0.01,0.00333,0.0,-0.991,-0.072,0.158,-0.02111,-0.00556,0.0
77962,-0.98,0.138,0.083,-0.01,-0.00222,0.0,-0.989,-0.071,0.152,-0.00222,-0.00667,0.0
78054,-0.979,0.137,0.077,-0.01333,0.0,-0.00333,-0.991,-0.074,0.159,-0.00556,-0.00444,0.0
78156,-0.981,0.131,0.079,0.0,0.0,-0.00222,-0.989,-0.071,0.154,-0.01111,-0.00222,-0.00222
78260,-0.981,0.135,0.08,-0.01889,-0.00222,-0.00778,-0.988,-0.077,0.16,-0.01,-0.00778,-0.00111
78354,-0.982,0.136,0.077,-0.01556,-0.00667,-0.00222,-0.993,-0.078,0.156,-0.01222,-0.00556,0.0
78459,-0.98,0.133,0.078,-0.01778,0.00333,0.00778,-0.988,-0.067,0.167,0.0,-0.00778,0.0
78561,-0.98,0.13,0.076,0.0,0.00222,0.00333,-0.988,-0.077,0.164,0.0,0.00333,0.0
78660,-0.98,0.133,0.075,-0.00778,0.00444,0.00111,-0.988,-0.075,0.16,0.0,-0.00111,0.00111
78759,-0.984,0.136,0.074,0.00556,0.00333,0.00111,-0.991,-0.077,0.156,0.00778,0.0,0.00111
78860,-0.979,0.14,0.077,0.02111,-0.00556,-0.00111,-0.992,-0.077,0.152,-0.00889,0.00222,-0.00333
78962,-0.977,0.142,0.076,0.00111,-0.00111,0.00333,-0.988,-0.068,0.157,0.00778,0.00333,0.0
79053,-0.983,0.135,0.082,0.00778,-0.00333,-0.00111,-0.99,-0.077,0.156,-0.00444,-0.00556,0.0
79157,-0.982,0.134,0.078,-0.02,0.0,-0.00111,-0.99,-0.073,0.154,-0.00222,-0.00111,0.00111
79254,-0.982,0.136,0.074,-0.00556,-0.00111,0.0,-0.987,-0.071,0.166,0.0,-0.01111,0.0
79352,-0.985,0.132,0.075,0.01222,-0.00778,-0.00222,-0.987,-0.071,0.155,0.01111,0.0,-0.00111
79452,-0.985,0.138,0.076,0.00111,-0.00222,-0.00222,-0.989,-0.076,0.151,0.00111,0.0,-0.00111
79557,-0.984,0.136,0.077,-0.00222,-0.00222,0.00222,-0.991,-0.083,0.154,0.00778,0.0,0.00222
79653,-0.977,0.141,0.075,-0.01111,0.00667,0.00333,-0.991,-0.07,0.156,-0.02444,0.00556,0.00222
79750,-0.983,0.143,0.071,0.02889,-0.00667,-0.00111,-0.99,-0.073,0.154,0.00667,0.0,0.00111
79852,-0.982,0.138,0.077,0.00333,-0.00222,0.00333,-0.99,-0.074,0.154,0.00111,0.00333,0.00222
79954,-0.979,0.14,0.073,-0.01444,0.00889,0.00667,-0.989,-0.07,0.154,-0.00889,-0.00333,0.0
80052,-0.98,0.139,0.08,-0.01,0.0,0.00333,-0.988,-0.07,0.158,-0.00222,0.0,0.00222
80158,-0.981,0.138,0.074,0.0,0.00889,0.00333,-0.99,-0.083,0.152,-0.02556,0.0,-0.00222
80254,-0.979,0.138,0.073,-0.00111,-0.00222,-0.00222,-0.985,-0.076,0.161,0.00778,-0.00778,0.00444
80352,-0.982,0.135,0.071,-0.00333,-0.00333,0.0,-0.992,-0.075,0.158,0.01556,0.0,-0.00333
80450,-0.979,0.137,0.068,0.02889,-0.00778,0.0,-0.986,-0.074,0.152,0.01778,0.00333,-0.00778
80548,-0.979,0.138,0.077,0.00556,-0.00111,0.0,-0.994,-0.085,0.153,0.00556,-0.00778,0.0
80654,-0.982,0.141,0.073,-0.00556,0.01,0.00778,-0.988,-0.067,0.158,-0.00889,0.01,0.00556
80753,-0.975,0.136,0.075,0.00889,0.00333,0.00444,-0.994,-0.072,0.156,0.01889,-0.01444,0.00556
80856,-0.981,0.129,0.067,0.00444,-0.00444,0.00111,-0.99,-0.077,0.151,0.01,-0.00111,0.00222
80952,-0.979,0.142,0.071,-0.00333,-0.00111,0.00444,-0.986,-0.069,0.162,-0.00444,0.0,0.0
81048,-0.98,0.145,0.075,-0.00222,0.0,0.00111,-0.99,-0.073,0.153,0.00889,-0.00222,0.0
81154,-0.98,0.144,0.07,-0.01111,-0.00556,-0.00111,-0.984,-0.066,0.157,0.00333,0.00111,-0.00667
81256,-0.982,0.137,0.071,-0.00444,0.0,0.00111,-1.0,-0.081,0.151,-0.01222,-0.00889,0.00111
81352,-0.98,0.139,0.069,-0.01333,0.00111,0.00556,-0.99,-0.076,0.152,-0.01778,0.00111,0.0
81449,-0.983,0.141,0.07,-0.00111,-0.00333,-0.00111,-0.99,-0.077,0.153,-0.02,-0.00667,0.00667
81548,-0.983,0.141,0.069,0.00111,-0.00222,-0.00111,-0.989,-0.074,0.155,0.0,0.00333,0.0
81655,-0.982,0.134,0.075,0.0,0.0,-0.00444,-0.993,-0.076,0.15,-0.00556,-0.00444,0.0
81755,-0.983,0.138,0.071,-0.00444,0.00111,0.0,-0.994,-0.073,0.155,0.00111,-0.00444,0.0
81854,-0.976,0.132,0.076,-0.01111,0.00444,0.00556,-0.987,-0.076,0.155,-0.00222,0.00222,0.00111
81948,-0.983,0.133,0.072,-0.00111,0.0,0.00667,-0.994,-0.076,0.149,-0.00778,-0.00111,0.00111
82054,-0.979,0.135,0.081,-0.01667,0.00556,0.00667,-0.99,-0.074,0.153,-0.01,0.0,0.00556
82150,-0.978,0.139,0.078,-0.00667,0.0,0.00556,-0.99,-0.071,0.158,0.00778,0.00111,0.00556
82255,-0.981,0.136,0.07,0.00556,-0.00333,0.00333,-0.992,-0.074,0.148,0.00556,0.00111,0.00111
82350,-0.982,0.137,0.073,-0.00889,0.00222,0.00556,-0.992,-0.07,0.154,0.0,-0.00111,0.00222
82448,-0.981,0.137,0.071,0.00889,0.00222,0.0,-0.988,-0.072,0.154,0.0,-0.00556,0.0
82550,-0.982,0.145,0.069,0.00333,-0.00111,0.00333,-0.996,-0.073,0.148,-0.00667,0.00667,0.00111
82651,-0.983,0.141,0.07,0.00667,0.00222,-0.00111,-0.992,-0.077,0.145,-0.00222,-0.00333,0.00111
82751,-0.98,0.14,0.078,-0.00778,-0.00333,0.00222,-0.995,-0.073,0.156,-0.00444,-0.00556,0.00333
82852,-0.979,0.14,0.075,-0.01778,0.00889,0.00222,-0.987,-0.07,0.16,0.0,-0.00667,0.00333
82965,-0.981,0.141,0.068,-0.00889,0.0,0.00222,-0.987,-0.064,0.157,-0.00667,-0.00222,-0.00111
83050,-0.984,0.14,0.07,0.01333,-0.00222,0.00111,-0.99,-0.073,0.157,0.01667,0.00444,-0.00222
83149,-0.982,0.139,0.071,0.01,0.0,0.0,-0.995,-0.074,0.15,0.00667,0.0,-0.00111
83252,-0.979,0.143,0.07,-0.01333,0.0,-0.00111,-0.989,-0.075,0.154,-0.00333,-0.00333,0.0
83352,-0.98,0.14,0.067,-0.00556,-0.00111,0.0,-0.991,-0.072,0.148,-0.00222,0.0,0.00111
83454,-0.98,0.143,0.068,0.0,-0.00111,-0.00111,-0.99,-0.074,0.151,-0.01111,-0.00222,0.0
83553,-0.982,0.148,0.066,-0.00444,0.0,0.0,-0.99,-0.073,0.158,-0.00222,-0.00222,0.0
83648,-0.98,0.137,0.072,0.00889,-0.00444,0.00111,-0.991,-0.07,0.152,0.00889,-0.00778,0.0
83754,-0.984,0.138,0.069,0.00111,-0.00667,0.0,-0.987,-0.069,0.154,0.0,0.0,0.0
83855,-0.983,0.138,0.07,-0.00556,-0.00556,0.0,-0.992,-0.078,0.147,-0.00667,-0.00556,0.0
83954,-0.983,0.15,0.067,-0.02,-0.00333,0.00111,-0.994,-0.071,0.15,-0.01222,0.0,0.00333
84059,-0.981,0.143,0.067,0.00667,-0.00556,0.0,-0.991,-0.072,0.145,-0.00111,-0.00667,0.0
84150,-0.979,0.138,0.074,-0.02,-0.00111,0.00222,-0.99,-0.073,0.153,-0.00222,-0.00333,0.0
84255,-0.983,0.141,0.067,-0.00556,0.00778,0.0,-0.988,-0.066,0.159,-0.00444,-0.01,0.0
84348,-0.986,0.14,0.074,-0.00111,0.00556,0.00111,-0.988,-0.071,0.152,0.0,0.0,-0.00222
84456,-0.983,0.144,0.065,0.01,0.00111,0.0,-0.988,-0.078,0.153,0.0,0.0,0.0
84548,-0.981,0.145,0.068,-0.00222,0.00778,0.00222,-0.99,-0.075,0.147,-0.01,0.00889,-0.00222
84654,-0.98,0.149,0.062,0.00556,0.0,0.00222,-0.988,-0.075,0.155,-0.00333,0.0,-0.00333
84752,-0.979,0.143,0.068,0.00111,0.00444,0.0,-0.993,-0.081,0.147,0.00444,0.00333,0.00222
84855,-0.982,0.145,0.073,-0.01111,-0.00111,0.0,-0.992,-0.075,0.149,-0.01222,-0.00222,0.00222
84955,-0.983,0.148,0.07,-0.01222,-0.00333,0.00222,-0.993,-0.069,0.152,-0.00444,-0.00333,0.00222
85054,-0.98,0.142,0.063,0.0,-0.00111,0.0,-0.987,-0.076,0.155,0.01667,-0.00444,0.00333
85154,-0.98,0.135,0.075,-0.01,-0.00111,0.00333,-0.99,-0.077,0.153,0.00111,0.00111,0.00333
85254,-0.98,0.145,0.07,-0.00778,0.00556,0.00667,-0.99,-0.07,0.153,-0.01111,-0.00222,0.00444
85355,-0.979,0.149,0.062,0.00667,-0.01111,0.00333,-0.994,-0.067,0.152,-0.00111,-0.00667,0.00444
85454,-0.98,0.137,0.07,0.00444,0.0,0.00778,-0.991,-0.071,0.15,0.00778,0.00111,0.00444
85555,-0.976,0.138,0.071,-0.00889,0.00111,0.00444,-0.989,-0.065,0.158,-0.01444,0.0,0.00556
85657,-0.984,0.147,0.066,-0.00111,0.0,0.00333,-0.99,-0.065,0.155,-0.00667,0.0,0.00222
85761,-0.98,0.142,0.071,0.00444,0.0,0.0,-0.992,-0.074,0.152,0.00111,0.0,0.00222
85853,-0.983,0.145,0.068,0.01,0.00778,0.0,-0.991,-0.074,0.15,-0.00111,0.00222,0.00111
85948,-0.982,0.145,0.07,0.01,0.0,0.0,-0.993,-0.07,0.15,-0.00222,-0.00667,0.00333
86052,-0.976,0.142,0.064,-0.01333,0.0,0.00667,-0.987,-0.062,0.154,0.00556,-0.00111,0.00222
86149,-0.981,0.139,0.064,0.03,-0.00111,0.00111,-0.992,-0.069,0.141,0.01,0.00556,-0.00444
86250,-0.979,0.143,0.083,0.01333,0.00222,0.00667,-0.991,-0.077,0.15,0.00333,0.01,-0.00333
86354,-0.982,0.15,0.07,0.0,0.0,0.00222,-0.992,-0.072,0.146,-0.01889,0.0,0.00444
86451,-0.983,0.149,0.066,0.0,0.00444,0.0,-0.993,-0.072,0.147,-0.00778,0.0,0.00333
86548,-0.984,0.146,0.067,-0.00111,0.00778,0.0,-0.994,-0.066,0.147,-0.00556,0.0,0.00333
86649,-0.981,0.149,0.069,-0.00444,0.00556,0.00111,-0.994,-0.068,0.15,-0.00444,-0.00444,0.0
86752,-0.979,0.151,0.065,0.00667,-0.01333,0.0,-0.989,-0.062,0.157,0.00556,-0.01222,0.0
86850,-0.979,0.14,0.072,0.0,0.00333,0.00333,-0.99,-0.071,0.15,0.02,0.0,-0.00111
86953,-0.98,0.139,0.075,-0.01222,0.0,0.00556,-0.99,-0.071,0.149,-0.01444,0.00222,0.00111
87054,-0.984,0.153,0.058,-0.00667,0.0,0.00333,-0.989,-0.066,0.151,-0.01333,0.00222,0.00333
87152,-0.982,0.153,0.066,0.01222,-0.00778,0.0,-0.992,-0.074,0.145,0.00778,0.0,0.00111
87256,-0.978,0.149,0.07,0.00222,0.0,0.00111,-0.989,-0.068,0.147,0.00778,-0.00111,0.00222
87348,-0.981,0.146,0.06,-0.00222,-0.00556,0.00111,-0.989,-0.062,0.149,0.01,-0.00333,0.00333
87455,-0.98,0.144,0.07,-0.00111,-0.00333,0.00111,-0.985,-0.06,0.153,0.01778,0.00111,0.0
87554,-0.981,0.145,0.065,0.00222,-0.00222,0.0,-0.992,-0.067,0.145,-0.00667,0.0,0.00111
87656,-0.98,0.155,0.06,-0.00444,0.0,0.00444,-0.996,-0.064,0.146,0.00333,0.00222,0.00111
87754,-0.987,0.15,0.059,0.01333,0.0,0.0,-0.993,-0.066,0.146,0.00333,-0.00111,0.00333
87854,-0.982,0.143,0.066,0.00333,-0.00222,0.0,-0.992,-0.069,0.146,0.0,0.00111,0.00222
87952,-0.983,0.152,0.066,-0.00556,0.00222,0.0,-0.991,-0.062,0.152,-0.00556,0.0,0.00222
88055,-0.979,0.153,0.065,0.00222,0.00333,0.0,-0.992,-0.063,0.146,0.00111,0.00222,0.0
88148,-0.978,0.157,0.07,-0.00222,0.0,0.0,-0.989,-0.067,0.149,-0.00333,0.0,-0.00222
88250,-0.982,0.151,0.065,-0.00667,0.00111,0.00222,-0.994,-0.068,0.138,-0.00222,0.00444,0.0
88351,-0.979,0.15,0.068,-0.00333,0.0,0.00111,-0.994,-0.069,0.146,-0.02333,0.00111,0.00333
88448,-0.983,0.154,0.061,-0.00222,0.00556,0.00222,-0.996,-0.062,0.146,-0.01333,0.00222,0.00778
88554,-0.986,0.154,0.059,0.00889,-0.00333,0.00111,-0.99,-0.063,0.145,0.00333,-0.00111,0.0
88653,-0.982,0.147,0.06,0.00444,0.0,0.00222,-0.995,-0.071,0.14,0.0,0.00889,0.00111
88753,-0.981,0.152,0.06,-0.00667,-0.00111,0.00333,-0.989,-0.068,0.144,-0.00667,-0.00333,0.00333
88857,-0.981,0.154,0.059,0.01778,-0.00333,0.0,-0.995,-0.062,0.147,0.01222,0.0,0.00444
88955,-0.984,0.154,0.056,0.02,-0.01667,-0.00556,-0.991,-0.065,0.14,0.01778,-0.01,0.0
89058,-0.982,0.152,0.071,-0.00111,-0.00556,0.00333,-0.993,-0.065,0.143,-0.00111,0.0,0.0
89154,-0.983,0.158,0.064,-0.01889,0.0,0.0,-0.991,-0.064,0.15,-0.01556,-0.01111,0.00333
89256,-0.979,0.156,0.065,-0.00444,0.00222,-0.00111,-0.992,-0.058,0.149,0.00667,0.00222,-0.00222
89357,-0.982,0.155,0.068,0.03,-0.00111,-0.00111,-0.992,-0.064,0.137,0.00333,0.00444,-0.01111
89454,-0.978,0.153,0.065,-0.01,0.00778,-0.00556,-0.99,-0.073,0.141,-0.00333,-0.00333,0.0
89553,-0.982,0.149,0.057,-0.01667,0.00556,0.0,-0.992,-0.064,0.139,-0.00556,0.0,0.00111
89654,-0.984,0.146,0.061,0.00222,-0.00778,0.0,-0.988,-0.069,0.141,0.0,-0.00222,-0.00111
89754,-0.981,0.156,0.064,-0.01222,0.0,0.00111,-0.992,-0.069,0.134,-0.02,-0.00111,0.0
89852,-0.978,0.157,0.063,-0.00333,0.0,0.0,-0.993,-0.068,0.145,-0.00889,0.0,0.00556
89959,-0.98,0.151,0.065,0.01,-0.00889,-0.00111,-0.993,-0.065,0.147,0.01556,-0.00556,0.00556
90057,-0.981,0.146,0.065,-0.00222,-0.00556,0.0,-0.993,-0.066,0.141,0.00111,0.0,0.0
