Header,foot_Accel_X,foot_Accel_Y,foot_Accel_Z,foot_Gyro_X,foot_Gyro_Y,foot_Gyro_Z,shank_Accel_X,shank_Accel_Y,shank_Accel_Z,shank_Gyro_X,shank_Gyro_Y,shank_Gyro_Z,thigh_Accel_X,thigh_Accel_Y,thigh_Accel_Z,thigh_Gyro_X,thigh_Gyro_Y,thigh_Gyro_Z,trunk_Accel_X,trunk_Accel_Y,trunk_Accel_Z,trunk_Gyro_X,trunk_Gyro_Y,trunk_Gyro_Z,Label
58.26,-0.9974605401032696,1.0781851918156289,2.073550689395444,-1.2136646936328046,2.3779610823972286,-1.8633137837226403,-1.188257935328596,0.36223662726552386,-0.13844115277189437,-0.6204978845550899,1.8490601288087607,-0.7300669152019267,-1.4524005876415256,-0.20682509410571764,0.22119677035610472,-0.6703612021591054,0.15240780912748256,3.381108476738094,-1.1072883270052962,0.3507991910929523,-0.05014215928105353,-0.6260887874182721,-0.234822728749432,0.6997931176303988,idle
58.36,-0.2935917770630575,0.4442000921943909,0.9823211602871222,-0.975085808038602,-5.227856925701961,0.9515715602113215,-0.42846141801031157,0.31950648830084977,0.07301327484829703,-1.4747465258818955,-2.4000057197587874,-0.36031545113916075,-1.0700799169885638,-0.3852026856930204,0.13638084291087665,-0.5069155140694874,0.853871620915346,2.7417974279157256,-0.911764577491019,0.03646254903281765,0.03394951969772185,-1.7043576217856575,0.02753649031932468,-0.07051774493847679,idle
58.46,-1.1086784550702296,0.5787421379863227,0.7527097361552568,-0.1952138008073234,-5.913543805309098,0.5698849821967558,-1.1867098715150415,0.26065490019241755,-0.49905066365685213,-2.225480547401058,-5.260778221998611,-0.40657895327965166,-0.7609911977608801,-0.31418765884353095,0.21555582041940088,-1.1609184351781137,0.739201288955603,1.0404020106029281,-0.8569646305105436,-0.11157397920545917,0.05164112999751667,-2.5260258626164194,0.04462659222733262,0.30052788994211715,idle
58.56,-2.444359547181269,0.838661844704041,0.1879367460262094,-0.7112592560674734,-1.0242572458111394,5.917747254907235,-1.5843710161596638,0.6997598704172977,-0.9902146019538385,-3.5038061905228566,-4.516019697433949,-0.5821177596800697,-0.9339085292063182,0.19797281030172414,0.2924470136013941,-2.8782004486150696,0.049716195095742766,0.1423605680740063,-0.9534499203235006,0.09305507855050507,0.2005788418229702,-2.2439228041410373,-0.05072288502185594,0.41791762848549807,idle
58.66,-2.2846603923556583,-0.5256226588120103,-0.6137662781882307,-1.416291777221451,1.7271543257366186,1.7093557272965345,-0.8437893837872876,0.1488762060617393,-1.339849806846749,-2.285688770872423,0.2882051180360857,0.14342618496774834,-0.9257810095669337,0.3309137558150083,0.26159557457924965,-2.2391923492388415,0.08771676263895903,0.6344786727277454,-0.9811042510457598,-0.008042679954297475,0.15024974936261168,-1.5141451602238014,-0.06813808786736174,0.1870223971738654,idle
58.76,-0.9502245948823225,0.08843407937412182,0.8563189068792662,0.34076705727450574,-0.1903735283026995,0.2202489853946127,-1.2311420756721796,-0.14299844412235216,-0.41635812720949816,0.09873887256572389,2.0115653041117056,0.5050048626485354,-1.1126089246155808,-0.2692198339551167,0.4157032562319622,-0.1303008310222949,0.49147390167887545,-0.08436255304856022,-1.1287158908715729,0.22222678094449586,0.16462370647881147,-1.1327858748824178,0.17996093486179304,-0.18860032764837542,idle
58.86,-0.6258066222448644,0.16597497301934486,0.8716645957449505,0.19301020698409904,0.018369331505564263,0.2636155499430807,-1.0425484807579406,0.1334141323062483,-0.10518938876421764,-0.12821174443454422,0.8581834288045018,0.36700411883803385,-1.0470094658429936,-0.14517198197095169,0.12472731920922601,-0.2604252777810936,0.39259414576258606,-0.7556000817333055,-1.0749284018609724,0.09443030761296771,-0.1655116658879103,-0.6280843023809597,0.3314011080430899,-0.12543564453871198,idle
58.96,-0.5610807686249983,0.14239238955854386,0.8018555418457962,-0.1723678774628397,0.042220612742903965,-0.021118236823762356,-1.0787801160277137,0.01603709592013329,-0.2188064069666961,-0.3646298713165331,0.20099381583429293,0.13359152309092523,-1.0735653484726038,-0.14782560303483888,0.18611239547070207,-0.47060200605899283,0.18814658487423114,-0.8430206436559866,-1.0277380582377862,0.23170266732269584,0.07530427014037841,-0.7674534867731321,0.158032388919983,0.3258965996021769,idle
59.06,-0.5989176308683878,0.13758359294538577,0.8059912266093745,0.13551251468981423,0.16396840517914277,-0.08622855305162816,-0.9194251771641191,0.07851082810431134,-0.1155959632241819,0.1093949687351226,-0.10822819051704162,0.08962591871609984,-0.8968095300134241,-0.0026008544550331705,0.15416078298229377,0.04286721397804003,0.05502797084465834,-0.6838101043010629,-0.8498477328535415,0.21183158240101913,0.024652669053962635,0.00990147714008636,0.19265135318762144,0.13238696416495738,idle
59.16,-0.5745293273374952,0.12082472658013761,0.810474990467305,-0.2921609129721997,-0.900979518888637,-0.27930977888112507,-0.9385964927668032,0.05360837890783039,-0.1421726712542758,-0.3253819805421664,-0.14753144356589867,0.011425737658361215,-0.9220369626170946,-0.15615217126515302,0.20234622121592066,-0.40713928166142443,-0.0020070056906206554,-0.777151372284878,-0.914402825173509,0.14151838362710603,-0.017753097577052974,0.30271870823341,0.059465627935325636,-0.34849902140125344,idle
59.26,-0.48856492574703114,0.11481436443815843,0.8813023426760551,-0.1489815645259956,-0.06294908939098905,-0.09595701460222489,-1.1387678517964028,0.0282658291458531,0.008231309830434644,-0.091824878860301,0.11625092400749275,-0.06432940531963975,-1.077549104778727,0.019930351136907495,0.2536917357627922,-0.12893894415708618,-0.07385092403408287,-0.17106766222442646,-1.0969804317940883,-0.05016365632653051,0.10026751500612001,0.4089684850896466,0.13130992994535304,0.007921766511267591,idle
59.36,-0.5149503297053901,0.05954070763714363,0.811372775967391,-0.025590549403814705,0.0032282577054303955,-0.0300250042473957,-0.9113360635282011,0.010970731204977062,-0.20581956046393532,0.014950769978037834,0.04571792513575847,-0.03021034252906002,-0.8841132482408302,-0.2771736979397424,0.25311695828440994,0.024401785923020343,-0.027032601802760504,0.11714427415445475,-0.9709688251541607,0.02235025595741508,-0.25038271551599606,0.5214775537253263,0.16563725314186256,-0.04231368980146034,idle
59.46,-0.5110809530732114,0.08821371868572872,0.8779057249423554,0.0637618536470616,-0.024905941937995134,-0.015523477057396559,-1.0369007428446533,0.03918101413710448,-0.05971167738940586,0.12996534447586044,-0.1351809840090012,-0.03970791156458144,-0.9992691001567892,-0.07226530997618516,0.2418542152051017,0.13427409512516514,-0.03877255941823401,-0.1206768349506094,-1.0131859705821658,-0.00875178774462661,0.11251191662503643,0.2289834838483503,0.08677418829728796,0.04462467717976784,stand
59.56,-0.5046140460587014,0.0878252874952102,0.8450885632723495,-0.039593721816455735,-0.020453491424974917,-0.025690519562722704,-0.9783485645447039,0.02640396688107243,-0.09580167524000067,-0.002955084204885411,-0.015741997593608014,-0.04064659219979142,-0.948445121182545,-0.10827701342222873,0.25231341240258576,0.000844705645183895,-0.04055226809648204,0.0016573666117956805,-0.9942626535653598,0.005970806844598275,-0.048986322954891644,0.07298814486501078,0.11867104976565049,0.06790001575921836,stand
59.66,-0.5155835589210952,0.0856179954280837,0.8637700915214044,-0.013524123140811976,-0.0022936526511493902,-0.001235940414708745,-0.9958767670644313,0.03065212744196628,-0.0763049188465232,0.028368066394684303,0.0347585694253474,-0.03936859537882691,-0.9628275644355636,-0.09033544620228125,0.26012690544142175,0.02156369353737945,-0.03918381761972705,-0.02229841883076873,-1.0043922634461429,-0.0040808492467519705,-0.01787983217384779,-0.09722435707337,0.01719416755593213,0.044152083123393956,stand
59.76,-0.5067952188407651,0.07591094436299214,0.8520029932421215,-0.05103549626564226,-0.014551823538136974,-0.016914794603554353,-0.9933167263179072,0.0123204731338272,-0.10240773319320502,-0.045220149181543115,0.06638333919845917,-0.014272110846635344,-0.9541435097837706,-0.12619575573839298,0.27279672116604875,-0.05767866434360217,-0.016983877057000586,-0.024438759513923134,-0.996817930241398,-0.001626093781929715,-0.005617620093047325,-0.08252814280210985,-0.00433820570383278,0.010001738926580362,stand
59.86,-0.5088587997665869,0.0729028092738965,0.8519348436402385,0.002086469701450735,-0.004660648076185764,0.010629168909723772,-0.9917595093162392,0.015981393074622523,-0.11696549122258348,-0.002503210468939283,0.042950320603376856,0.004056096471822835,-0.9536513943575041,-0.14790856777117514,0.2653736390634104,-0.014402159501593148,0.0025060038075513493,-0.04085609886537552,-0.9999975928955136,0.000772018313871185,-0.00894669317284604,-0.023791399232600756,0.021665013192752283,0.00392056852548058,stand
59.96,-0.5124074162208949,0.0799739953110439,0.8604515862442371,0.016225936714527007,0.014672714713942126,0.01932447464047047,-0.9947859245436035,0.02511377854709181,-0.10146754473572303,0.006370329029746241,0.039763549645921985,0.011684334880276244,-0.9588665530643727,-0.12125330485290328,0.25960383892738775,-0.005920211009267934,0.010301737992615715,-0.04530504514538264,-1.001583606299097,0.01153672527420895,-0.02433703644478042,0.020399413247303367,0.020691004513986765,0.0037963368086030105,stand
60.06,-0.5105658414015688,0.07788979075757176,0.8581164232987728,-0.00607567045776541,-0.010513499348825641,0.004758125662691456,-0.9925560327275178,0.022810399966499695,-0.11584909993106669,-0.022767245320233866,0.062147408347012864,0.01454697516761192,-0.9560336650865446,-0.1375224814927505,0.252824682862485,-0.03530639988065006,0.012736236778583284,-0.02291558536717735,-0.9976218775642582,0.020625737391354166,-0.022444315280880672,-0.010618132429923821,0.001618455929926453,-0.03200114402722025,stand
60.16,-0.5084177235603972,0.08097776301238752,0.8535822231354672,0.0039813138205972536,-0.008034353429478365,0.00775693315948702,-0.9912180959581931,0.02547941380564846,-0.11633470329512605,-0.008047751666510039,0.08294614155050359,0.015259941632184313,-0.9557719323711265,-0.12984394571089775,0.2580302421527164,-0.02037093156979759,0.014594287755067178,0.0009194530878400104,-0.9971949475429742,-0.001561580828234185,-0.0031978144264448545,0.00219737232417585,0.0042609375680597444,-0.01378405887271222,stand
60.26,-0.5213260452015855,0.07401935563238331,0.8691834182402094,-0.03513709957064608,-0.020036820679469873,-0.013618107130029259,-0.9862364286354015,0.031621753919467685,-0.11720269677872101,-0.06833980269300088,0.1444888277807012,0.028351087693654325,-0.9553727134810893,-0.09781565405743997,0.259825068315684,-0.08533200970049219,0.027723420679237144,0.032013752957879796,-0.9933963185927194,-0.008638202845276858,-0.007777661787271815,0.02122291161068235,0.026449144910059213,-0.034549552062341726,stand
60.36,-0.5064919097304029,0.0839224227283346,0.8687496946885741,-0.10219029591503181,-0.10978807976938162,-0.05866412920479795,-0.9784218544600692,0.03860049429373917,-0.12102868939256999,-0.1883028790913927,0.36643499224541337,0.06672894729759657,-0.9519395744087003,-0.05315907565344922,0.27334342901605835,-0.22113519195749717,0.07424336946420186,0.14024157677160926,-0.9954926495139012,-0.07143921431392489,-0.009701533243588738,-0.06698474658325697,-0.011283376402915057,-0.07596158484546675,stand
60.46,-0.47588613587762485,0.04698272220312554,0.8396543908168255,-0.07402832137853047,-0.08518300809755464,0.07578179915339715,-0.9589907487811524,0.00897239790499812,-0.20592954836017427,-0.3071749983547858,0.44430518594023816,0.13243324206258827,-0.9381187279984363,-0.1153756251484559,0.2805171074067497,-0.3649132400334778,0.15160734053168673,-0.01625889032148294,-0.9750015016849654,-0.11709075204388601,0.10928785620377852,-0.19978328002858906,0.041060247081910695,-0.04590675237421553,stand
60.56,-0.453816474202403,0.053784085770060906,0.8164192984869596,0.213916446514894,0.12231376981504198,0.3198198046838763,-0.9491353988781774,0.003827503459190375,-0.26842184622946824,-0.04389352999068606,0.41333545959264206,0.2041963156895387,-0.9320633704232539,-0.13675957550499268,0.26031944021711667,-0.11465044273186328,0.20404515336505166,-0.20957708137152076,-0.9614495238707776,0.0004088056846425595,-0.09121914682595109,0.00409356661668161,0.044470467697913504,-0.22575700268373783,stand
60.66,-0.541639970713389,0.14138612048899696,0.8743276552356928,0.5806271649070583,0.18227528543022742,0.32684768269933573,-0.9767059139550079,0.13926586678662253,-0.3161937818810042,0.5679304202849621,0.2521599310923955,0.23844911165700444,-1.0065828638455199,-0.2211713185077238,0.0879219949063223,0.47675378078897773,0.17525279902981172,-0.5429839115931082,-1.0513584422454507,-0.07516105798881505,0.10165453845705215,0.08570255255917263,-0.4207767787251945,-0.24676841886670267,stand
60.76,-0.5245633909117077,0.18719874915747722,0.8872234414582335,0.05581192118643339,0.055675864025816535,-0.0686912921832561,-0.9836744137283897,0.15842696062470954,-0.2410595979122112,0.21373310939814805,0.29755496678376586,-0.00845968969691882,-0.9937963571275688,-0.1398060603263545,0.06868126428712366,0.07167616717163021,-0.04103552494760783,-0.7255244124014348,-0.977829722018827,-0.06859920928582666,0.32688542815929866,0.2825139900939628,-0.07994304300309986,0.4250680348149733,stand
60.86,-0.5199234221365605,0.14656872828814382,0.8118760818829228,0.06172531074011064,0.18236901774367734,-0.07725109014826723,-0.9413073963740514,0.03126931122084324,-0.3525554158114212,0.49668751312097514,0.5811379378650858,-0.10827546675575624,-0.9178629293450704,-0.1737564177558078,0.1904030928530799,0.3052990648471,-0.14480797649805235,-0.7499507736583007,-0.8400081485057751,0.21870346314446043,0.1405374745303349,0.19486905941608898,0.00906015549412915,0.13444037821370997,stand
60.96,-0.6035671914071995,0.1679126245855006,0.8244180628052004,0.009814305803364948,0.5215165940158321,-0.299705556192129,-1.0204585925368412,0.08155564801330217,-0.43737407995412864,0.7007780655424931,0.757240526228692,-0.20944706748772335,-0.9866865875092736,-0.2984500161343526,0.1444513512581495,0.43934025157560913,-0.2559795744032852,-1.0639035922251072,-0.96822176634863,0.016863473678625784,0.2550970401938793,0.19927365072420228,-0.08175796617175868,-0.3300718053970534,stand
61.06,-0.6307876007622439,0.18096615035133207,0.7482845352919364,0.22922517260250733,2.749113036043745,-0.08841678559831706,-1.3384515270339956,-0.04266223222283487,-0.22888066137215707,0.8119504313144288,1.1734683092394036,-0.6228391152401876,-1.1641357893332493,-0.09969173412003211,0.22611568723043626,0.5187778171081973,-0.6620636677692087,-0.68153449603023,-1.1944240075831558,-0.09002159599254916,0.3646405896136865,0.3286366082683797,0.20916555357322003,0.04076441219750926,stand
61.16,-1.4980621614384153,0.432631932768344,1.0579111506719059,-0.10502472148704149,6.037620550848006,-2.184401152105626,-1.5794732078033251,0.46737470434490724,0.01181719456372097,-0.5144178805116211,2.199817323220657,-0.9797442528820419,-1.3581880191993616,0.29619991512081095,0.13098135424986332,-0.8715753106109118,-0.7245262661676551,1.0256412370158117,-1.2482551147459995,0.09234434290477828,0.17398030866254793,0.013018491963560636,0.07676975165528188,0.7318212946532544,stand
61.26,-1.1315354189370477,1.3988986955525085,1.9217357844956062,-0.8680022906208528,1.7107500618371219,-2.1367500707742755,-1.193099885782352,0.5154390401416186,-0.14616165730201264,-0.5373281854768986,1.8804116990627187,-0.0409752403755118,-1.2466984610173975,-0.035030966050705284,0.2780143183252489,-0.2358613613466695,0.43510889401499986,3.087286956707653,-1.07040612244878,0.06787761271178516,-0.23710772273303568,-0.6624492455746702,0.2353445967373009,-0.04450007679930199,stand-walk
61.36,-0.19588459838894617,0.43298447081400104,1.0951714839932303,1.2779644811995197,-4.512825230442644,2.059125152522066,-0.6195095558329139,0.2147122626279164,0.1451006138513274,-0.5985672606027788,-1.8775935749482335,1.3351473130985663,-1.038153450327999,-0.27932377210582576,0.26067730183999127,1.3366718654136527,1.1055331746617436,2.9519920284843577,-0.7768398365095432,0.012476567520592136,-0.011897376682216295,-0.8181150319017357,0.05883783573384974,-0.3919315518242541,stand-walk
61.46,-0.6085907648004053,-0.06636810133618423,1.1534659415936765,1.2009927120651809,-5.35618169148914,1.3841460814012438,-1.1239182487375678,-0.10761848134247713,-0.1511510564455834,-1.3612446531609685,-5.072502824054909,1.1084065267308307,-0.667492424241986,-0.31442281101702413,0.17110679523318176,0.654425045953477,1.215994725985311,1.5464340829759393,-0.7376704855738915,-0.20520979992085037,-0.07287382486146982,-0.8234436494922601,-0.2041359854016051,-0.03490251838218036,stand-walk
61.56,-2.1225034636236497,-0.03751154714574388,0.9655858769183363,0.3243269193275995,-3.0910976417691307,2.8248418244342575,-1.7789906621921758,0.11779492895719242,-0.9282710385412498,-1.8878046270980282,-5.638338160669555,0.1342995545235007,-0.7594990737478775,0.3456186952753638,0.21132163317376165,-0.9096942022595369,0.45139603730018907,0.13138851153296488,-0.8958100268704803,-0.1190909736198998,0.17460695516211266,-0.8710170793475417,-0.4058055202758967,0.40230488728924935,stand-walk
61.66,-2.695943379713483,-0.5923551962479461,-0.7687102794823366,-0.4188673514495118,1.8962025667025557,0.16215549014150002,-1.1102322160791744,0.14253107105768228,-1.4702338379117283,-0.4557857445184208,0.872900574105598,0.10472664424266809,-1.1254541807076934,0.7522727595424318,0.16327408971324103,-0.46767348450807267,0.17084123804375853,0.7859363362109003,-1.114337147249094,0.13636950825418268,0.4126615685614663,-0.8814744077257011,-0.12921772150343744,-0.11094197883196504,stand-walk
61.76,-1.0897072237004122,0.05222128648617339,1.2406866850951719,-0.46369834546086197,1.081819914949846,-0.19516620348422337,-1.1983442666494064,0.029156651050880177,-0.5466146845610279,-0.2088649447211386,3.2902455151931838,0.026343560722498494,-1.1650332642229295,-0.308888552653473,0.20574664741620077,-0.6964539640847848,0.22086692343702835,-0.4113374657988146,-1.2777889912068698,-0.07236487273210299,-0.09381584773000044,-0.015765731981397156,0.4169159601374622,-0.8229344448975515,stand-walk
61.86,-0.5685088671486791,0.19796241983414486,0.8188411107235904,0.08336197053949941,-0.032309365662329385,0.08237986510882273,-1.0397214392430396,0.19792072080445913,-0.38585020781841617,0.1162197521544435,1.3096215139681946,0.07977734549801963,-1.2225676763243187,-0.2861039873288229,0.058422236577198625,-0.31243983152061866,0.04214156439650237,-2.0735738880699914,-1.1899982777371019,-0.14032561832118293,-0.22174712780022307,0.41483877371693473,0.08145688813107846,-0.15580915172484375,stand-walk
61.96,-0.5766853451028987,0.24999600044616743,0.7607219442089149,0.14750124466249206,0.22799015526852381,-0.11355249997002319,-0.9706735052406437,0.23522577206516138,-0.31672234015081735,0.25350775717898993,0.26219424598277363,0.06655219301793279,-1.0114244512485393,-0.08793978847129366,0.05662507774764752,-0.11470268959830063,-0.059037538369427565,-2.5123356145816222,-0.7814611401158302,0.060306715924704025,0.01796493515979259,1.315737094871003,-0.05366387846590327,0.26232755014413184,stand-walk
62.06,-0.6361149050380307,0.23215565300034918,0.759723397386302,0.3164548548538915,0.23004750216367625,-0.4811367628446231,-0.9064115765598395,0.2613879238390084,-0.22965023942321755,0.6603425443813037,0.26357574902798964,0.09406501549961671,-0.8865790852234945,-0.015327335769302142,-0.001498505992133125,0.2857213678083095,-0.01459036790218562,-2.5148087864273925,-0.6200845996898566,0.12076468580621687,0.10591362399579404,1.412608090419884,0.05838219119732174,-0.44598448956920606,stand-walk
62.16,-0.586534540383255,0.2691635505961646,0.7026009587705626,0.5593703889541483,0.7556564693642469,-0.4070158237616999,-1.115054432057232,0.10097961974859215,-0.22246371779480695,1.373120878802419,1.2072782520751437,-0.043394430220448074,-1.0116736453204793,0.0513345706704688,0.08641496787102113,0.984750495808395,-0.01390452957230789,-1.5532719550263014,-0.9403596590764367,-0.16241586782025869,0.11836753967850881,1.6707297350229804,0.17966952329984134,-0.5735738446125271,stand-walk
62.26,-0.9623963456101627,0.2934612617888258,0.6728730252923014,0.5147585500259688,4.570256079766273,-0.4216396906616081,-1.550550058736079,0.23870621581342083,5.343517870121522e-05,0.7865966987118408,2.2778053365025395,-0.624541688631575,-1.2965759380282236,0.17592133943770824,0.06599134783182595,0.3120584444682242,-0.6526122933391736,-0.9529329776491584,-1.2699019397280669,-0.38358275772693934,0.423201524441991,-0.05114976868930989,-0.0981182713235923,0.4923195129710588,stand-walk
62.36,-2.053699497301853,0.9967362769736663,1.7336403507400213,1.0039914478455456,6.47661015145477,-3.454855441749916,-1.7295095515475327,0.576104523788661,0.08231536174359136,0.8891640218910786,3.1374121229898493,-0.42841975292353907,-1.290638080955689,0.21919094074029105,0.19100318892248605,0.5718382800709513,-0.49984991514912175,2.1242120409583056,-1.2055730621575758,0.058438479806344444,-0.28725547476226393,-0.17252098253163084,-0.1158108838922226,1.3265443508524102,stand-walk
62.46,-0.46187336202451357,1.2191369333018196,1.8369700792304655,0.09437299632902493,-2.933352014941311,-0.9438363064850261,-0.8758490302535096,0.34190060391851773,0.09911960771039813,-0.08696374198205933,0.19577152354689326,0.4280647691325403,-1.4974478114812786,-0.3797291109425764,0.31868069667877963,0.7938851216149991,0.4627369368860763,3.6912116292773414,-1.0816969239016052,0.3000537178837815,-0.07140110081514922,-0.48928731116181157,-0.022038263983419966,0.08175035324892987,walk
62.56,-0.5202572371111789,0.22778592827750338,0.9138734155405768,0.9744550243441484,-6.334029759083913,1.6131322776848296,-0.6887017993374683,0.18809012907208394,0.04248530784717884,-1.2537710794995394,-4.480594024171382,0.7890954781729113,-0.7713259957014191,-0.4763752020747167,0.12996728283381256,0.6512748519843194,1.0020445665842073,2.3513144890753854,-0.7133095444240594,-0.18519538935226348,-0.015137965236464688,-1.5457876337920688,-0.04173644692338825,-0.06954623166960541,walk
62.66,-1.79820838140685,0.1751550240925204,1.6841664220042258,1.138849554947358,-5.795316369916446,2.403781970690509,-1.8592722389124272,0.12471314169987924,-0.6162487239455434,-1.8337818625915205,-6.7752245182906465,0.34296116422937106,-0.6144683938672567,-0.21330822249470702,0.21544774743222347,-0.45981558687260965,0.6749867982246116,0.48291644080265766,-0.7100754145463846,-0.08490104112679667,0.0778381407617467,-1.4875660955616212,-0.15238873223227095,0.4254252867472409,walk
62.76,-3.443052935904646,-0.7708611681070009,-1.0430349983412712,-0.01441703103979341,-0.9826409192474994,2.0087770641309213,-1.1877734549234653,0.24907877901177655,-2.051384891529938,-1.3446601362663704,-1.7157144739182868,0.1385146870696474,-1.06699466660389,0.729467750722606,0.16773669448822023,-1.0053948160515853,0.1721380761301497,0.6214322890327604,-1.0326284003622248,0.21305563507922676,0.38809645257093794,-1.0706308230968336,-0.21636305099677527,0.21318411258913375,walk
62.86,-1.4258739799334337,-0.1857074160898239,1.1886812888111953,-1.0880616339772466,3.4655365585173383,-0.4223523685647452,-1.401413415090929,-0.001262260143853351,-0.5709748255519258,-0.6206749492457048,2.9581173155013882,0.19698513167757797,-1.2575168281195008,-0.10326571528264346,0.22947792211149562,-1.0315775549475157,0.33927703058320235,-0.1906149970246307,-1.2568478380146693,0.12347819291329228,0.25370087359583965,0.04727325389871369,0.691593266259152,-1.1303365823733504,walk
62.96,-0.7070402463962153,0.14711441767065458,0.9707566969951523,0.4426387946277751,0.2139431602142401,0.3350614840558611,-1.0235354898465003,0.20117048270652332,-0.355241595846414,0.41987917767273863,1.6610475748305316,0.17698610562341482,-1.113225904716551,-0.3937962895346693,0.03967941262768485,-0.015291892937380869,0.06108415499062216,-1.7471680471910378,-1.1680981691210135,-0.202198072445359,-0.32471406859577073,0.37995006834464295,0.27014975891156534,-0.7663115295422797,walk
63.06,-0.5500659513574362,0.20780439641729434,0.812772022785597,-0.04540835343295692,-0.09782369157764112,-0.06679129515382001,-1.0097715761789892,0.20808973212711743,-0.2255220611918419,-0.029672341094174604,0.3998478195809435,0.018790381464385993,-1.021479722570588,-0.17379901542411275,0.06183287772471073,-0.44419532628372405,-0.038444748781470015,-2.674599011021983,-0.8372376057107058,-0.08611100529991259,0.021481953397213167,0.7311412413603211,-0.08947375258846108,0.23070397779980248,walk
63.16,-0.543192282964989,0.20413636770361995,0.7849673665119187,0.053081948088674724,-0.08481216393609539,-0.328593458006072,-0.9128010780322324,0.21377577782225604,-0.06184543874550506,0.3030712226291794,0.7148493782188423,0.009346682920810905,-0.8705221430750607,0.16219678143275568,0.017930220432315326,-0.10419306841598781,-0.04320816029737838,-2.2315378613090586,-0.6213650644868983,0.18728379014253257,0.0933821072432892,1.2055018302841602,-0.11249928365008346,-0.14090516581455564,walk
63.26,-0.5696175510533797,0.21836164087976756,0.7955547438284122,0.4657618893373051,0.7262239863176883,-0.37802857146478197,-1.1525987206469774,0.13784611679054848,-0.29924620411111674,1.3682813863856924,1.514012280355125,-0.03682618782174103,-1.025834780072096,-0.13957405328703637,0.11190579523504343,0.944893974904334,0.02009544262278615,-1.4710147386559256,-0.9459424402766672,-0.12998838632607937,0.22041565735587726,1.1995176883327756,0.05065329095385396,-0.6820418259048389,walk
63.36,-0.829989546978245,0.2697916084837866,0.7112879796441762,0.6009551892887577,3.9021406881149665,-0.39442713415218933,-1.4579883200996497,0.19971337210284373,-0.09921989550072344,1.3698605285431775,2.272792238721948,-0.49341854898205534,-1.187090809820735,0.02423377668222959,0.11965569745269693,0.9138722222867713,-0.5047988093155353,-0.7997067408566345,-1.2514628708974178,-0.4466030995789504,0.27727067381612475,0.6260355801639222,0.0024586685549907944,0.3068487032515827,walk
63.46,-1.963058726654096,0.6994981163476824,1.7106019444161344,0.1228283527000621,6.739530636171014,-3.644849199270041,-1.7918510525273237,0.5523214769670384,0.11009091964017965,0.4600445937525882,3.2406993702507547,-0.5188809394789587,-1.2790626021933567,0.34851826150109344,0.12712809748208803,0.09359902071568961,-0.43681036102782944,1.8858348396456495,-1.2067538923389425,-0.05597411841632349,-0.20998894722237896,-0.2914500006472648,-0.1455492450463826,1.37741387969572,walk
63.56,-0.417028084887038,1.1564845074192065,2.105506960051141,-0.31834337200175583,-1.6854189196524032,-0.9925826994472547,-1.0064370956540596,0.19556965319122258,0.06983416565485542,-0.2707921779950685,0.765222837018108,-0.0881574195724967,-1.5667336553073352,-0.3235746190483212,0.2956113030418543,0.24144436712793396,0.3634432602080945,3.9204481292008504,-1.0787180328493675,0.3221418000272472,0.045600227881745156,-0.7250959943901945,0.01847432608353658,0.3885066715991824,walk
63.66,-0.3846984426952243,0.14691744012584773,0.9991976209649673,0.5690854832085879,-6.160000011258768,2.0492240836669557,-0.567544244234828,0.1664941702957664,0.09470502428252428,-1.0932510107349656,-4.400632795330108,0.16204115494509658,-0.8406196827254135,-0.49814602369634065,0.16923892815547475,0.2648805637735797,0.546062342211964,2.517916099930796,-0.7601035835140266,-0.03333428188404196,0.07610700637971948,-1.5043471447498615,0.07939272619873945,0.0010253439616046307,walk
63.76,-1.689168022384176,0.4014404440814636,1.3743655196501507,0.607977549451644,-5.626476887817093,1.8186112164648431,-1.6847930877486679,0.1661258263290769,-0.6819442489248634,-1.596942978495819,-6.805474625457528,-0.014788520322453036,-0.5553097695902993,-0.26017626268467253,0.21352915245758508,-0.44476339384249497,0.2982537075917092,0.33685186441226067,-0.7142771750144414,-0.15964854873637352,0.07792095564217531,-1.5057643154098834,-0.02645510049325746,0.3214878200472745,walk
63.86,-3.4366468007031843,-0.38653269718096295,-0.9193961368957465,0.19183534138896347,-0.9547023072841674,2.7652621804715873,-1.2587024803714797,0.31110135277996964,-1.9710456767300362,-1.2524814121738408,-2.2191963666911017,0.10757318034688286,-1.0977827910078977,0.6195165340713766,0.22526433589417555,-0.9018654338433141,0.14112729212521405,0.19988198222599723,-1.006744072264381,0.2823320243332145,0.34089267096772174,-0.7814877688573427,-0.1526765172301637,0.037430689492408506,walk
63.96,-1.437544188282765,-0.13024394828758673,0.9980960726367346,-0.3611278187400537,3.2570687729140637,-0.07448189287766903,-1.326726826281344,-0.09256448877468922,-0.539592114618413,-0.4954424437866877,2.7967180213974547,0.16544114203276478,-1.1627122930427793,-0.0054979087395842455,0.2637964536551342,-0.8694593336459147,0.25316609536435036,0.06066013799046124,-1.2042785438066295,0.03480980757312297,0.24153485505363315,0.4301143337869763,0.6248608819610298,-1.141386371272494,turn2
64.06,-0.725470539288533,0.22303741967258514,0.9998755019121646,0.0928048690305888,0.12477941210128332,-0.010784415760205272,-1.0356612608126459,0.16692843363838308,-0.30168401075265644,0.18396237279248923,1.713628693517606,0.06290789970426362,-1.0962939606190696,-0.32294232281141216,0.06028248909256062,-0.2494307305242922,0.03216678843672577,-1.4990458584380206,-1.1802946363694253,-0.1388413466852424,-0.26418225425409136,-0.2071277852737481,0.2643369548812615,-0.5047689113331371,turn2
64.16,-0.5396534706031954,0.181937344661864,0.796485192408575,-0.28125054795973325,-0.1482064243323698,-0.25494225469143145,-1.025905423599302,0.08081219459534203,-0.26972191836480885,-0.1208781843310173,0.5343407163732381,-0.11483141807953272,-1.0268421625488178,-0.20613854895218106,0.1656709699608201,-0.5477809892815529,-0.13759010072339933,-2.4542208813676827,-0.8810183430699208,-0.05232277677359045,0.05611122870563673,-0.30070728683031744,-0.0025074747673417904,0.3920962067071568,turn2
64.26,-0.5680212746160199,0.16084728307462362,0.8012542819990429,-0.025254095790401037,0.05319120327984672,-0.3912830144246627,-0.9789823151389385,0.0945747444808078,-0.10867431495023269,0.3815922198278977,0.6326169734258105,-0.1364644991096347,-0.8957571862786476,0.12701692443934712,0.11997481209905134,-0.010300089747022187,-0.19163003206852233,-2.2325774195139014,-0.6541564609947089,0.20016685922857969,0.10845213633756903,0.43219965845573316,-0.04959391770025391,-0.09298408971999765,turn2
64.36,-0.5687817947761271,0.1557137629464873,0.7942745801477511,0.23774953384346337,1.0512168650147795,-0.36597691068661575,-1.1909651785661823,-0.020059947030890448,-0.22566168189514718,1.0776306415597459,1.3839332207888244,-0.2958657437241207,-1.0331912153058769,-0.10006108942053973,0.21437349717271426,0.6908529181835554,-0.2759533863165966,-1.4966633070759165,-0.9301957759140251,-0.031256571910048214,0.2122410246919534,0.7061121287900786,0.08678785742847736,-0.7607032784938779,turn2
64.46,-0.9089678489841061,0.18929032255621853,0.7226812832700005,0.338268993955219,4.0368988211076475,-0.4982693561945643,-1.4073025968055233,0.18232085212675614,0.04033070023092896,0.7249320303483267,2.202636152491249,-0.865599529832898,-1.140036152577395,0.13074134283185132,0.08188004447741853,0.30393813348646104,-0.8628001396294532,-0.6374077401216269,-1.2141438338434523,-0.37987825079024856,0.21133797616591302,-0.0879536689576709,-0.0796245968081541,0.3037840780860863,turn2
64.56,-2.0220444668589233,0.9931536092235165,1.669060011751116,-0.8993793625741706,6.324166747638829,-4.137058270078407,-1.8337372738795654,0.7338428739025503,0.06160466108871784,-0.29864348882051905,3.2497625336853098,-0.8331534214579804,-1.4260959310033496,0.29750372604353525,0.021357644792067303,-0.6475949958243353,-0.4641926993231144,2.378481236602704,-1.287130393372035,0.10977173448832936,-0.17264223857523303,-0.7752924298470337,-0.19554157904921735,1.4116456007292713,turn2
64.66,-0.5288110213893066,1.1837841846680814,1.8382016919084534,-0.8541683170887573,-1.3733731261214615,0.5400772328369047,-0.8864725907965507,0.3537552780019889,-0.06522221433375933,-1.0793333742133213,0.7553029033523945,-0.24055311636897442,-1.574830783804245,-0.3448494902264741,0.1927032424433601,-0.32782702427597127,0.9096509146899574,4.086629661574762,-1.0587259906381892,0.3089918887118132,-0.06731955508755966,-1.2719975209670542,0.012488262699078139,0.07392431621397494,turn2
64.76,-0.49736611185125124,0.09426681204739565,0.8990343360656488,-0.8100763337726274,-6.356791073422284,1.7039149000529672,-0.48636745113367086,0.19587940409723986,0.07455407874682635,-2.0146412571901227,-4.00668921833592,-0.2903927181148459,-0.803266847971148,-0.5048967646689395,0.11519852144889368,-0.5617679385285597,1.1780973659581049,2.657313988428623,-0.6817936523745718,-0.1372765628979236,-0.01965934077536905,-2.149201148479407,-0.16220162744187,-0.1139291721408728,turn2
64.86,-1.469035727895099,0.9176617786507041,0.9322663667228159,-0.35287054825858877,-4.909424537634353,2.3528638169313982,-1.641712488598817,0.36289353167602234,-0.6187981531351742,-2.610600307948187,-6.509445918367355,-0.6398551340620484,-0.6432134609287525,-0.3138225602071891,0.28870358570573895,-1.5964805044665302,0.48480251022767745,0.5876947754488822,-0.778676919187658,-0.1572642846643389,0.17082652092250736,-2.1209282423344016,-0.3924589035871261,0.42011683952239337,turn2
64.96,-3.1421020215786006,-0.08025796186542618,-0.896752769027311,-0.5215306926012456,0.09810812347003012,3.9952628562447225,-1.3579514935958499,0.4714364669621327,-1.5823246480739501,-1.97759735327045,-3.3400780752199664,-0.20813191377492365,-1.0052738470049203,0.695578661490748,0.2163163381942224,-1.4643937382618026,-0.09993913844658463,0.30167269045468154,-0.9704713185097832,0.14208493804857386,0.34714915603658486,-1.6611683339329228,-0.026839210311529266,0.5494985515992699,turn2
65.06,-1.905718831436518,-0.0865121937261313,0.15363139799822662,-0.899145473355787,1.199746625431255,0.5975077796101119,-1.1650008737453044,0.006191913712808887,-0.9784560537701736,-1.2954569329276955,2.6761532225404676,0.1984837681096221,-1.0834543075854897,0.17441770601191703,0.27825999654746303,-1.603704742477987,0.2797446374806705,0.39333531821084095,-1.1573996160644335,0.11201726224267321,0.34442862979663164,-0.9117512451263735,0.30945319743982364,-0.5360992440967567,turn2
65.16,-0.7737274533527708,0.16378126887561256,0.9603434426613964,0.21094034196310502,-0.11076083570032405,0.28900743429343123,-1.2382097978383093,0.03010150722115069,-0.37175722877297185,0.08706485379113446,2.17858378078244,0.29262582057137265,-1.2688428563403673,-0.5054067493303463,0.20797277043509013,-0.27666484558541704,0.31109237844035087,-1.0359548587355976,-1.2591936373025339,0.2088603592086613,-0.23219934350319454,-0.5080186935538833,0.5975250233197384,-0.7320249670819552,turn2
65.26,-0.5650482481005892,0.19460995477917978,0.8321346282393198,-0.4351487880755105,-0.1831292659895482,-0.3974841699146401,-1.0514941449175985,0.09457108358019155,-0.2598773796109374,-0.4268471153307348,0.5685752905171892,-0.005335172144084811,-1.0917449756669453,-0.20211968409496076,0.13708803905845737,-0.7663631345165608,0.06508139956417133,-2.034726625574015,-1.0515890045124732,-0.06300217038787437,-0.0709461650904121,-0.4448353821794531,0.1359653165388635,0.4119639613268083,turn2
65.36,-0.5158141128143439,0.09718581747253345,0.7773416629621557,0.09866078121213423,0.22287824390250477,-0.3620265874457086,-0.9755745885659062,-0.04224785129510191,-0.13068486909663501,0.29690317097958546,0.25337634189169744,0.007547796925680791,-0.8779116710605136,0.11660218896690784,0.22048092131597458,-0.027733890318468325,-0.05699961047341323,-2.1410942067266627,-0.667733969222329,0.19104289561280544,0.0733958943521614,-0.10251879725105602,0.03583942615116673,0.09558641194259744,turn2
65.46,-0.601680906157501,0.1426886415665259,0.8285165407684534,0.1721319806035845,0.5400395171780383,-0.2733571346624366,-1.059053517314347,0.018384621308995458,-0.1303531843000025,0.651956774460827,1.029537160558862,-0.16963019808029556,-0.9640995659440055,0.03660340116617453,0.20282864667452158,0.31741677703084903,-0.19116587559352022,-1.4057984753798338,-0.8295562508073469,0.16540782788584207,0.10777305304292648,0.4463516255951096,-0.1318846839209719,-0.6652046336762142,turn2
65.56,-0.6523867739165442,0.1517659746772539,0.7625638622163972,0.1962288150444397,2.11783418998688,0.00017912493914486738,-1.2611319256468079,-0.07849920845560567,-0.08143293273529761,0.7167686693230493,1.81349330881817,-0.5591160742347107,-1.0261728571273945,0.05778827230590805,0.2135746889673073,0.3564570235034188,-0.5749971880804009,-0.5942182767583093,-1.0871461757311562,-0.3300198019900199,0.24764745182111425,0.44240383063057964,-0.11022554378614484,-0.5198991946299671,turn2
65.66,-1.4413310089977254,0.3224384885935717,1.077199613031247,-0.26611615183884485,5.636891298011877,-2.0693925545753693,-1.7020032616625904,0.4221028853833283,0.04594876936769599,-0.39029975329116817,2.7605664280863023,-1.0333808765320278,-1.3506744786877574,0.24991249767320514,0.06052280637324038,-0.8406891894584779,-0.7257146681170632,1.3707154263995154,-1.312447051811384,-0.024172600259251182,-0.02499118933798865,-0.40814531541254356,-0.1711208267710437,0.9447215390646656,turn2
65.76,-1.0068614556783277,1.1040260826591384,2.0886159721903153,-1.779517987690097,1.888557232091341,-2.5488997413667236,-1.1242565048246127,0.40953585779787743,-0.07184429293404232,-0.9891569103264306,1.5572749946512274,-0.8545845527488704,-1.3549559281553112,-0.17734296618772855,0.10651274926590996,-1.025713677565563,0.2410417991445295,3.2217595990274432,-1.0805714165533458,0.1744028887869405,-0.0936813887839612,-1.1643090803981213,0.10924774668686502,0.2792049241093713,turn2
65.86,-0.3521534688016433,0.7944739663111801,0.8501194092392514,-0.9429150543532561,-5.032257269214244,1.5063456249320093,-0.4648524326773626,0.4878290129759339,0.059923137453531984,-1.7088676753888568,-2.208758936595602,-0.6326309174069883,-0.9962488786867014,-0.30849540652717977,0.011420494906718282,-0.938939882681764,0.8567676973723012,2.6592053875308737,-0.8423378220304668,-0.023260870474669054,0.044502152856759444,-1.635445452156923,0.010373543360789082,0.0833202560330219,turn2
65.96,-1.0175638713589406,0.8522503202858894,0.982912529196574,-0.7258847726494058,-5.900131929833415,1.641406860657738,-1.1420130508383497,0.5158111414616078,-0.23807287869130875,-2.785883591322465,-5.088721911588673,-0.5820369541379852,-0.7413167511185204,-0.37413911048878756,0.1799366397601533,-1.7356861000144044,0.9414899822860194,1.1375811091536077,-0.8203902040636436,-0.14172736891679022,-0.006041630587942212,-1.7241309173432395,-0.1638724679066937,0.27285865246366947,turn1
66.06,-2.6662966274409614,0.7107228077420734,0.41394228705751746,0.9454693068372203,-2.9141491172326206,5.093734751933628,-1.6376170647851058,0.5418364514035682,-1.2382315722359478,-1.9976361819888298,-5.051516321514186,0.12147589975636211,-0.8917024766002586,0.37802076817355657,0.2299342303194019,-1.2003334421697298,0.4966050180149154,0.17502728036338522,-0.8997695500768419,0.05145646780139518,0.13420572789987695,-1.45719217067009,-0.3802816534189555,0.5163643517930627,turn1
66.16,-2.5249060096741625,-0.5728473270434298,-0.4650375888861699,0.05124685296336721,1.8786431265938728,1.6660429069655809,-1.0810882220851952,-0.024640604837987273,-1.2528635677891269,-1.1246901877699629,1.0738235361202797,0.4055987178317741,-1.1031413846451905,0.2419164509382657,0.25249071982396243,-1.1880533525369237,0.4518627512939104,0.7233450114606795,-1.0477741046151259,0.22000917740903456,0.377069308042745,-0.8997875163147377,-0.22490657608214115,-0.11093608937202015,turn1
66.26,-1.0387828818879794,0.09380767893477762,1.278626115688677,-0.4833193021214613,1.5097320017430254,-0.30101134061018653,-1.2479969590481463,-0.1701804414871007,-0.4686548480147678,-0.6759831477292706,2.3782241675291607,0.052543435240082925,-1.1674062080049155,-0.2543784524964328,0.28074476377136337,-1.0395967931045873,0.21619988354973457,-0.33805041440502404,-1.2246064840356798,0.15662567410890657,-0.08299419282526685,-1.2666978924207037,0.4993193130593049,-0.5952640456732066,turn1
66.36,-0.5863709579734182,0.18911412714579046,0.8396846362952306,-0.20467207657241754,-0.08827975593296312,-0.10223877724013594,-1.0368366426095856,0.09905963529483444,-0.23642061470433542,-0.13190346453576218,0.922980578030477,-0.03300225680810269,-1.0900825382929331,-0.2712212257624731,0.136228168905279,-0.46760748896499427,-0.00990212148549583,-1.4965666083079179,-1.1148912234826203,-0.09182720987181822,-0.15597632275199025,-1.3838510870982053,0.22692827306623511,0.12845215338326993,turn1
66.46,-0.5191884205006736,0.17591045082260148,0.7804709920053627,-0.13215295282781342,0.20993208630983468,-0.14005560906461478,-1.011285424100596,-0.004929673619423329,-0.17497577338590853,0.036639059318631075,0.2766100389535616,-0.15608321048562238,-0.9556821889776217,-0.0009638147744020206,0.20001200307440553,-0.26782987815169024,-0.19630721030186504,-1.8016355983688896,-0.8188206124602739,0.17290840939036956,0.08205905375923542,-0.7770022943496971,-0.008153401852997528,0.32955696969660236,turn1
66.56,-0.6136121119980581,0.1545806912660078,0.805231574469515,-0.030990902393548216,0.22499485160616808,-0.13514151633203816,-0.9695146943846444,0.03306748749983648,-0.12623104753967299,0.3467673577257261,0.5785208494850185,-0.2662805039766173,-0.89460961733958,0.011071567403111918,0.18548425535268093,0.059884400947096926,-0.3143934634731063,-1.4706043195990357,-0.7805970038094407,0.1823129233577525,0.07180260332660411,-0.5076282011228386,0.06429146663148758,-0.24275972263723275,turn1
66.66,-0.592029127559686,0.1521255648977299,0.7774796848203007,-0.13933855701339773,0.8126619851834643,-0.07259117751663513,-1.1340014320277498,-0.08112731988247959,-0.17071679451361121,0.3550805424887383,1.038621172929864,-0.48051634041977725,-1.0099489574116483,-0.07502313334437219,0.22818777011472008,0.07631028287723182,-0.5075060940274221,-1.0019024085009973,-0.9598708132658389,0.014182324938293227,0.11409593305048135,-0.11271698040774883,-0.09699600302395267,-0.7519977205475075,turn1
66.76,-0.8681213547918407,0.17701528083705834,0.7995077321104619,-0.39792534310730127,2.9383454347192934,-0.23326578791928484,-1.3385014830647124,0.1568452754279081,-0.008148176076827,-0.19605832179486923,1.628719781664967,-1.064893486865374,-1.1596650525245036,0.006614408513294437,0.0912125597482281,-0.5150779452718224,-1.040872404244793,-0.2795371956837891,-1.2286916655158466,-0.27042846746947974,0.32210744431618876,-0.36338042583417807,-0.23541709433222063,0.2534812636182662,turn1
66.86,-1.5135418829529133,0.4994050063876849,1.4624631063016293,-2.6356616114633504,4.974383555523565,-3.4307131164186133,-1.6081685859909711,0.5069912347718777,0.020918030752997203,-1.7998557854510664,2.7632194658008857,-1.2766376333988203,-1.3101461816909739,0.2590648545735819,-0.01455765650831856,-2.163236088868636,-0.5078505299450791,2.1868589934261924,-1.1888816474031585,0.2107489676901338,-0.14101673920895894,-0.7180782713666386,-0.014545441032114016,0.7496056966666511,turn1
66.96,-0.5363635205154882,1.1587687275872516,1.6472477612967797,-1.435125893961363,0.15070629132505778,0.5582538132223609,-0.877606151434551,0.435345174561358,-0.07249862605794258,-1.2863673663154853,1.0618942464208743,-0.7052185809609536,-1.3057550205080337,-0.2270856253540318,0.15683289292820596,-1.0351545855006274,0.5489423503401093,3.5241737266336464,-0.9892859796425041,0.03792451837963368,-0.06750148245618054,-1.173163604926941,0.047897290046453954,0.024081608277585705,turn1
67.06,-0.4908548886639329,0.2769804783585397,0.9405274674165099,-0.6964222118782234,-5.39177059158134,1.1152354328786969,-0.5314523353789873,0.3663842191842589,0.04690747638410479,-1.6776462172901319,-2.984660546593685,-0.20731451763185063,-0.940474709755765,-0.384741218711172,0.041086547564418416,-0.5279470145051872,0.9683935084521471,2.507941405513845,-0.805670287142284,-0.050288942712391385,-0.03674410039366753,-1.8476786882176577,-0.08300135613276857,0.011214813876617186,turn1
67.16,-1.2561414724552207,0.9479810662868559,1.1215916494317306,0.2361914374816158,-5.662036522730665,1.913532691480175,-1.4149932836370405,0.492582545398019,-0.42653008246412416,-2.4983739237928715,-5.836637831445875,-0.2341952741255236,-0.7278970127396445,-0.33645000334441766,0.24584148580685317,-1.3373624554502075,0.8361569210348112,0.7378519542985351,-0.8496977568748617,-0.17148134087257172,0.08802277743217421,-1.6528354836397878,-0.3222244653014619,0.3170486451467783,turn1
67.26,-3.1656690530336307,-0.339667241171213,-0.19809875838094368,1.0186784345246795,-1.9827873537860579,3.905320340332745,-1.3988186457070992,0.3275570886787583,-1.6038577765553093,-1.2783045506486608,-3.7492907242726004,0.38696110361113056,-0.9537351118676712,0.6049824924751936,0.1573634362122141,-0.6667403618793428,0.4748053832075908,0.22692036804123697,-0.9265615569099644,0.06523539533518619,0.166816984566373,-1.0321280500956773,-0.37066049627733116,0.47976648820539713,turn1
67.36,-1.7238152832469642,-0.5603331216899989,0.33850688493672987,-1.024051991476536,2.3728567113424033,0.06658773776517217,-1.2685344833024355,-0.18034947416236466,-0.8089936678487402,-1.2801013222169775,2.3073441740613228,0.23742893574351115,-1.1578093261741538,0.19242413186285837,0.3069371089219931,-1.539161963014538,0.3603793777688826,0.45197103272033373,-1.163981568097102,0.19387870359411558,0.4782422416455508,-0.6710654014035746,0.050541322203742065,-0.3901518497684659,turn1
67.46,-0.7960447932772643,0.08607924355677012,1.1513405081049268,0.24583495108187425,0.8816171994725848,0.24546177037757527,-1.10241434918536,-0.009129458585378883,-0.4003084887408118,0.29863894159162163,2.0751921565802456,0.15563485745727934,-1.0845738670510017,-0.3085610780270348,0.231596871765357,-0.08973810859617375,0.10258675691622283,-0.9155887007174688,-1.149065766848462,-0.002683830464106015,-0.18884317874257842,-0.37443718722355224,0.44575979149731226,-0.5476751319512447,turn1
67.56,-0.5624984014838776,0.1942996558649107,0.8272079508147767,0.16457236257191887,0.0017906230819356272,0.059936027784336564,-1.0381616960500673,0.15853750744899756,-0.23027756259171467,0.2528940714588645,0.8674163432069015,0.043271693683411855,-1.0771620833679103,-0.1593942280826671,0.08208176128169466,-0.09627295485867313,-0.045220967555124135,-1.7023245117258994,-1.062214678714161,-0.049005454236988946,-0.10740799499052422,-0.14488979903861576,-0.058199186487607135,-0.008780483321776448,turn1
67.66,-0.5783229085145206,0.18215089049678657,0.8104718994748799,0.08138326131600992,0.14602231390144166,-0.2534221961960569,-1.00721271185343,0.11723240105774246,-0.25092209116577446,0.3535298328270672,0.22523051912055894,-0.08089969235552016,-0.9954832944999661,-0.12821677457852748,0.12457743986173306,0.019581752415731048,-0.18146517132101284,-2.1187817595303766,-0.8275312668316526,0.09329718001535231,0.1678600989532534,0.24324432537481938,0.020837895713634695,0.17030093938886792,turn1
67.76,-0.581331108659337,0.18420284243038537,0.7916242677009925,-0.08562663499094562,0.22477016113643025,-0.4771502769767927,-0.9821168434383575,0.08560998354720924,-0.1033238971551457,0.38806486012198405,0.5806015673184752,-0.21365500474003274,-0.9142563868296054,0.061800226077245037,0.13903618884699043,0.07147094862614672,-0.26213584741836843,-1.750797873373692,-0.7816475185619429,0.11466335747743035,0.05384027410508705,0.2799280925968717,0.09632749679874289,-0.1723231284408945,walk
67.86,-0.6057041752673078,0.15912281124365046,0.7703044845252385,0.02741273180494979,1.3719287158490603,-0.032661299698034094,-1.1772348631627039,-0.05536733717230139,-0.18049999698469615,0.6227785999275437,1.3608967544517792,-0.44113301985931297,-1.0313575888635145,-0.021786907449379875,0.21926744337406417,0.3024940860948105,-0.45302871756055074,-1.0352771979936075,-0.9967744270014857,-0.0911154875586763,0.15003212180211367,0.24572383840611695,-0.015577657328633077,-0.5053834737427515,walk
67.96,-1.0601471512812857,0.25745157397743984,0.7678741932915928,-0.050900504142727634,4.36973206452601,-0.73455533540204,-1.4960736824029337,0.3294816302243805,0.05968952462345384,0.08484983834989657,2.4553603601061695,-0.913349455682169,-1.2059416134899046,0.25500817977677703,0.02691478696237392,-0.31420726399238524,-0.8463844145746167,0.33453644096879637,-1.2568996274218394,-0.26904906554736974,0.1705366070314223,-0.11597330404590937,-0.2512334910207209,0.7758588354691451,walk
68.06,-1.4998045495988315,1.0009963698496516,1.8407334897917864,-1.087145489231919,4.806709627090733,-3.179353257305306,-1.4685937468037635,0.5017443284719713,-0.09865687010876303,-0.4819526329423942,2.7207869119586614,-0.660830089460254,-1.3313720144116836,-0.0017517747776655836,0.17070090400181973,-0.6753141627431042,-0.09261171075006489,2.8541226458984768,-1.104062948676487,0.23540085881566913,-0.08852055381514407,-0.49320131360956376,-0.015309041799915084,0.914655983124196,walk
68.16,-0.12035523496224239,0.9883070398091085,1.4041526228002996,0.18293123928091543,-3.201926999029787,1.3013573523525515,-0.5125562440803135,0.3847390104324706,0.1533978351800138,-0.6580020026533078,-0.8057414773247304,0.45130402943275216,-1.1725650170047817,-0.32642112357469993,0.24070833010900589,0.46590451217248363,0.7650037650800063,2.9540703991846606,-0.9177425325634504,0.18396210088683296,0.030571984595073275,-0.9222911014779568,0.14343542643500626,-0.030270548905404933,walk
68.26,-0.659475858226523,0.16369995210163546,0.9881767238525979,0.5561391319588177,-5.8962664920665,1.0487972665476843,-0.8977823381846161,0.17471711831168804,-0.04124855430823339,-1.4949398795103348,-4.678019184576479,0.8506998483464143,-0.735680892397387,-0.39342490238805017,0.15523497840046405,0.33857261861612853,1.190457348134449,1.417287806124277,-0.7899778316028272,-0.1792787023308638,-0.038921352654074544,-1.0833761198452678,0.05501997817296125,-0.10351728425259647,walk
68.36,-2.1919889399707353,0.14630080204649554,1.2131027241467578,1.2646042830722615,-4.538635029357467,2.7594667922720344,-1.8540465265189092,0.20577097561081978,-0.9294767922676932,-1.6715700769542596,-6.049823575666183,0.558431919845803,-0.7839548102188572,0.14760628981872898,0.1868053868889241,-0.5416440144234589,0.7948948766394384,-0.14215850290377086,-0.868743393571728,-0.08709006366794096,0.20418470068890052,-0.6050019505986179,-0.03713768530736288,0.4405053085612871,walk
68.46,-2.721800603205903,-0.9868912497802146,-0.7571844675833732,-0.30597030969176153,0.7788978665072247,0.8258276198810778,-1.062018308435934,0.0015773802743899515,-1.5556697715822807,-0.8872561533811931,0.5383871146212602,0.30589813027316615,-1.079722129263752,0.60483053297943,0.16912628531443036,-0.9012699497698884,0.32895078487097584,0.4881881997786448,-1.0578691146626669,0.2849726331396596,0.3055655934857697,-0.34290016587737154,-0.19324515001190168,0.00932948554279513,walk
68.56,-0.9402318203454205,-0.10722007957972894,1.4229393193526088,-1.0864093530987138,2.436994046675294,-0.216568059659432,-1.3082748428255473,-0.09855761782131178,-0.35563470259923313,-0.607200066548684,2.6551314072632586,-0.004713737323815302,-1.1740791719601964,-0.11458742992878715,0.2551665649728935,-1.0500476357506343,0.1483749181264648,-0.5333903365539086,-1.2394137143737105,-0.016631009756688214,0.08765864578819435,-0.17736568459597268,0.48667668088900706,-0.8043667176099737,walk
68.66,-0.6347429710116371,0.16446830491948605,0.8477197443380484,0.4910228543203766,0.11158426421145348,0.23411224180956092,-0.9797674505055219,0.23231095779577413,-0.30564884013200755,0.5356326557670035,1.3461756092819268,0.14246512527532745,-1.0574228093595315,-0.32771360788072645,0.06619758592217553,0.12119166169068349,-0.015242236926661634,-1.799618306881067,-1.046094878538439,-0.11975269842429268,-0.23236880362751813,0.22603440362159616,0.052619572256362615,-0.3808475200018556,walk
68.76,-0.5896003569214174,0.21103695443416406,0.7907242035696711,0.20890611884334556,0.20406164447501401,-0.05456259018331745,-1.027352858526901,0.2063859681782095,-0.2824172436175691,0.3911718503322114,0.4318198280020553,0.012820543220855591,-1.0361880065146394,-0.17210257964761183,0.03339961227550558,0.014492030685207085,-0.1001282193038749,-2.312127300707997,-0.8754531966713317,0.06092108125041322,0.04864138340852207,0.781674354682935,-0.11191119093724866,0.01887510564168763,walk
68.86,-0.628347383182748,0.220683191472644,0.7564747297155398,0.1893371326180987,0.402489855131498,-0.32309849727895046,-0.9580754056732275,0.21899869265711117,-0.17747911454218424,0.6661452759781759,0.5729836057516168,-0.11619201686358124,-0.9181449248988336,-0.014552453562647005,0.01609384289281329,0.30240665556803353,-0.17256008644276305,-2.078460035805881,-0.7304351942566037,0.11454514135084289,0.1498134032464282,1.0453696747438759,0.061839130232512106,-0.31733421958558106,walk
68.96,-0.6424082801911492,0.23413222045628812,0.7031916858622604,0.3795130073039354,1.2212972055097961,-0.2239720791283344,-1.1175711752446549,0.06887313337601376,-0.23481177648990328,1.1747699575003216,1.3647896200818779,-0.2869187688523362,-0.994193737441208,-0.027075072878248712,0.12966538161125496,0.800816553526365,-0.26619327041320623,-1.395784146479926,-0.9482294022751365,-0.1616697751491319,0.11048090110993776,0.9257883560921998,0.1457949551442655,-0.5309455868358841,walk
69.06,-1.0477314045982726,0.3287406113564511,0.6160747474034061,0.7836728757952909,4.47338767237199,-0.5525882684089536,-1.495917158641841,0.24615442570178217,-0.005577176377799582,0.9277899481611257,2.358201386258803,-0.7016954819321862,-1.1988594998669515,0.16223656920612894,0.15681466836803754,0.502110854669512,-0.7187911083054879,-0.30651751502944813,-1.2772947079965387,-0.4027137254518144,0.1608533962538981,0.41513784840100393,-0.2812777153744067,0.6583595406050271,walk
69.16,-1.7601778522741736,1.1187670453595833,2.02911051426449,0.6165506057045989,4.789227457273904,-3.4588096083587856,-1.6189737566161195,0.5011332146878373,-0.02500421166929473,0.5400741352471672,2.8101084920839985,-0.23147565053777192,-1.3544941492276,0.025281496631374894,0.34422836417129254,0.40384596424095853,-0.22062325011315714,2.5635342787391453,-1.2187343467478757,0.0947673364863714,-0.08397112279366654,0.40347048116370565,-0.096071176923642,0.9155078765500196,walk
69.26,0.13381963132185137,0.9693206564251795,1.712926183241261,0.6179078159700123,-4.7947279994016485,-0.1349343522391728,-0.6153655420845763,0.195607751133292,0.4861385739140733,-0.2124251893946601,-1.2966045288733172,0.8978614323880556,-1.1449640832375805,-0.49134742816685834,0.343373978810224,1.1114098800230845,0.673749414925209,3.0447077847666812,-0.925396888640439,0.057903894448886384,-0.08760264070358528,-0.048904819611054175,0.25484842418781817,-0.22136503527716217,walk
69.36,-0.8713568146857174,-0.14418919298591937,1.4287794787023753,1.26466343825854,-6.322012588592874,1.3556558014981515,-1.3658610361878165,-0.0937365223316802,-0.14066079928199743,-1.2145507902683055,-5.802575004267552,0.7863807755580122,-0.6917991083976959,-0.4361746517902757,0.24796749464910378,0.46988865781673433,0.8471620949598115,1.3950055052611465,-0.7589717980443061,-0.18752043324796266,0.02598993739993405,-0.4564906333743797,0.08039333792352385,0.11257275497364745,walk
69.46,-2.9187309318667323,-0.5397168493511874,0.2422586741971605,1.1297976343947131,-3.6657530531376836,1.7092996046970252,-1.5469626039901665,0.08850308923704711,-1.712327004296003,-0.9504676738271096,-5.067719586529086,0.3925423697569056,-0.8143584863339786,0.24509021235311348,0.2257988547341126,-0.11673225670733123,0.44549568776489235,0.07998258322582955,-0.9016136480409799,-0.058794013102573796,0.1549101087610486,-0.3836741310034042,0.06900730618304127,0.4409699466512521,walk
69.56,-1.9938081945999127,-0.7799333074166872,-0.08367659676896896,-0.32043751432336276,2.2602531693019774,0.19057131691474036,-1.1766385219313533,-0.1540528899860842,-1.1392946202387182,-0.26185922082233243,1.388484310879525,0.268645102629891,-1.1419957684828952,0.16254649569476418,0.32683336187565415,-0.49029737537536777,0.2579674734983304,-0.15123496345413895,-1.1081440436087353,0.2305818175372985,0.24116622852462655,-0.07855837685310639,0.12542217895052796,-0.4336179986777832,walk
69.66,-0.8608995082102482,0.18066035345860812,1.2422997776442144,0.30750266771235996,1.1808589237474614,0.25936198757852685,-1.1455169495504487,0.14726879838229906,-0.2723476388981462,0.5849642339299991,1.9607292844009758,-0.022065457801774893,-1.0805122511877752,-0.2874616345085325,0.10034866088768672,0.1530011621540539,-0.10122320157699975,-1.0040027538805556,-1.136871769119941,-0.021021680663148197,-0.2752334676471911,0.016424880780356275,0.3059609181614781,-0.6829023603793527,walk
69.76,-0.5743355497527325,0.21654583313068043,0.8100832853872229,0.025260622060523506,0.04719173024185802,-0.06342969832933516,-1.0767152517424576,0.1939983846130758,-0.20198387977979687,0.2892666956120895,0.8419318772588866,-0.1424823851925329,-1.0678308495645135,-0.24391176677776877,0.07061235986925554,-0.12575875887065951,-0.2197576654086241,-2.013298105607486,-1.020426557182425,-0.15554281386608493,-0.01732229967917576,-0.07305024593670385,-0.14756348738184408,0.09749698213358819,walk
69.86,-0.6071520949546707,0.238591884652475,0.7747649213065045,0.02879010123958935,0.6106920233158244,-0.32526594412625043,-0.9808229891673547,0.1712189992150893,-0.12885037447118333,0.4509419159388154,0.7780956634094323,-0.18821190286538755,-0.9238639981131348,-0.04313442392993043,0.11230331147555925,0.10472808150617172,-0.24422465830598697,-1.6933522085054755,-0.7937547442539803,0.1114364690120282,-0.0060627484642622,0.7581170206941719,-0.07873551091709853,0.07997717436670573,walk
69.96,-0.6601499401287303,0.19978570727830078,0.7139447230813878,-0.0044232992030327194,0.8588310109145558,-0.2837261407035932,-1.0140157858075665,0.0974896528469315,-0.2711275274751598,0.4748532729273503,0.9765548871893003,-0.27384708150380976,-0.9355063062918466,-0.219278210932832,0.1299756873494448,0.12089117275936703,-0.30473982950938183,-1.659719322949853,-0.8171824299610346,0.09781798441841472,0.194120247918588,0.7438087517301436,-0.0461309367860077,-0.40327210517830947,walk
70.06,-0.7664456163498091,0.24258340016892643,0.6308029741248925,0.3713038258399041,2.1050715555105017,-0.2909277210547349,-1.1413232065720131,0.08456239646082944,-0.1948325900331569,0.905547198163745,1.4530210395175305,-0.4355446464721668,-1.0085184372066396,-0.07597281221296563,0.1358846740752972,0.5469270902314008,-0.4222197460184801,-1.290268087763943,-1.0032255878645615,-0.19858143888434285,0.15507544579043478,0.6727333803175538,0.03306477870131169,-0.506319524360864,walk
70.16,-1.2585494394339771,0.20830657835015387,0.659222576488576,0.14572442132101238,4.7047768494104325,-1.3654482783128732,-1.3603456046887632,0.2045685741005902,0.027359712633467693,0.14057337647028612,2.3487233908019816,-0.8589320119173711,-1.0851404666756161,0.13866487758620497,0.12221917813030239,-0.2634089042598903,-0.8443346288336262,-0.20166959679919455,-1.1874677791652573,-0.35094482030536195,0.13642373664682167,0.004191721593782983,-0.1352329317462882,1.050792568543251,walk
70.26,-1.7728934217627192,1.087088023015212,1.861806474972441,-0.6719788404631342,3.4571947655484387,-3.029835950150309,-1.6485454116642089,0.4761761092304632,-0.1673915639019068,-0.1783937447662374,2.9613288474023767,-0.36989581358606916,-1.4081772365563627,-0.10297558663759691,0.3320666701017226,-0.27102832011748024,-0.01973984795669298,2.8618013018669943,-1.2990098480729553,0.29373182789796437,-0.18146586201274,0.2694603513391094,-0.04426508605727111,0.8468951041926196,walk
70.36,-0.11597454905776113,0.7413483179081521,1.4878303200541434,0.6049437258501824,-4.052458714965733,1.4020576604010238,-0.6331264784217812,0.14962518908649752,0.152993455022931,-0.451148649936743,-0.9774160342006827,0.7421959984233437,-1.2694581563271214,-0.4416775906290945,0.4753196402854395,0.9198223408557432,0.7594717822856776,3.684417539612042,-0.940523288897564,0.012985785232108877,-0.10138030751485508,0.04244735135681852,0.2350588847835126,-0.4793127038728092,walk
70.46,-0.7372738512371362,-0.5960900564948807,1.1458142568695275,1.8646062459277992,-6.554246776151075,0.2417455164075129,-1.0153760614371,-0.33191886613917804,-0.13405618411334802,-0.2676357950298652,-5.237701651529703,1.5368908803869146,-0.6414060042941895,-0.3891275976026313,0.2896919027668062,1.8060548035444932,0.6403141220923422,1.9364824872097324,-0.6735519376541232,-0.14197080731004943,-0.01845305584246758,-0.8175220556885536,0.10171344613958966,0.02696699283942381,walk
70.56,-1.6416646236732888,-0.2084629109194956,1.3775024303030214,1.5570863796333945,-4.592096156944338,1.5775817684738713,-1.7414813144032841,-0.15983461334126572,-0.7992899584126395,-0.7670392822260743,-6.193743506133413,0.3983263598251602,-0.6853334254520621,-0.021026020693981535,0.15062739312640855,0.349104318728693,0.24715829415565138,0.18803675620407584,-0.8806633798011037,-0.12415593557339759,0.01127972936472587,-0.9540045524242393,-0.32207593462768574,0.4474235444729485,walk
70.66,-2.7427396081437787,-0.7209263391368139,-0.6372696818295339,0.24759519954095296,-0.3152891250997924,1.043943169789039,-1.0335653769194586,0.1638136165338036,-1.5010479746876617,-0.30135068641506024,-0.9937027066826658,0.015641325230163754,-1.0422028572526996,0.7395314832315579,0.19358364159801505,-0.13248378809949662,0.025009381462520797,0.1719896007778466,-0.997994641424721,0.15145278975899032,0.47281350143197853,-0.7733205423118458,-0.3907948663311805,0.14731625518821737,walk
70.76,-1.1713530130490937,0.006234293990266942,1.2013938510982427,-1.2827915428046737,3.2648549387736336,-0.5757430580062917,-1.3815571966959073,0.010072698546281057,-0.32715811068121975,-0.7440479012696888,2.7787474221473603,0.06470811139172632,-1.2113979874586058,0.05857816806170182,0.23860386967820024,-1.1432208849786551,0.2147838424297337,-0.10665557085781419,-1.2066147139928025,0.05819974256485131,0.11375869959696545,0.0652617157650152,0.834131816540286,-1.0627431320111953,walk
70.86,-0.7000326104164616,0.15106071287791573,0.9680102145708952,0.5994884169162372,0.43610468656012813,0.32724544436455455,-1.0098374412043039,0.17955903931699746,-0.3408514110955871,0.6913817924634996,1.8148749239220414,0.16096497774159196,-1.0606596642538226,-0.29665785774034187,0.06489193482566286,0.2745260941468509,-0.020868273679737127,-1.3126820352925213,-1.1694512014020542,-0.16059029152521195,-0.36067269752796505,0.27941836432796757,0.13670973344230408,-0.44977581010507023,walk
70.96,-0.5804672780637851,0.22110457549820609,0.8116478259039084,0.04873228708986059,0.19186082563749265,-0.02080619866795619,-1.048131382532029,0.19426503527368671,-0.25677536278538426,0.23407352009876617,0.6675369754496041,-0.0668783957238915,-1.088040309378844,-0.16700401880350554,0.08251295232289527,-0.16628003967467817,-0.1601165115066147,-2.0780129309189044,-0.9556963996285809,-0.0006872283810036905,0.006837485296609561,0.45641960761028083,-0.005993932165764994,0.1790006098329356,walk
71.06,-0.615534454135164,0.2188729266619009,0.7639753033527482,0.05774385444459085,0.48514344404295134,-0.27656909230711135,-0.9836931271968419,0.19548103352680862,-0.1987736498665502,0.3822574377715516,0.4369560341722195,-0.10310583547732662,-0.9541354949460044,-0.02058840752688914,0.06287009672558642,0.019929232942098148,-0.19300724188615992,-2.1202399580745963,-0.7611419011037778,0.11354575714479731,0.08359296571513095,0.8033187001606951,0.08450258751843154,-0.10281143830255479,walk
71.16,-0.6378677561048549,0.21072262161847802,0.7225185667362356,0.1959820043142677,0.9136242503733492,-0.3866048720865154,-1.0338194650845296,0.09964782651630792,-0.185284126522861,0.7635182962515212,0.9641060919040454,-0.19128176432861554,-0.9555775214841976,0.04994007130712951,0.10694658975645306,0.3893917167992652,-0.22469041969304254,-1.7544435290677414,-0.7940880791920428,0.08392332448582952,0.06812813385841499,0.9061216829412914,0.04590684710272007,-0.7099394345299823,walk
71.26,-0.8058514180303794,0.2464421392361343,0.6129566041756594,0.507069034032775,2.546824064085641,0.036476842067292625,-1.1667156093834496,0.09129974252519746,-0.13881476898446782,1.0299701366441452,1.9863658385281284,-0.5302890481731348,-0.9536865094545556,0.10275762702991434,0.1205338856191009,0.619699511838613,-0.5544371192299908,-0.7886915703282303,-1.0614134995369295,-0.5455042130792321,0.09591321618066005,0.567678777872961,-0.2723567024885244,-0.10409567658655683,walk
71.36,-1.6217914218760483,0.5470001306557004,1.1742019160219674,0.410393995779091,5.2289324038347385,-2.4094768388677332,-1.687285970896576,0.42950719240978474,-0.12060498521471738,0.38142466461928487,3.081381167775026,-0.6597364954520275,-1.2867559708780776,0.16264305585771063,0.16714780278706928,-0.06533987676081268,-0.5759463115863642,1.3027808472714488,-1.2757298357736224,-0.09908864229557304,-0.06674857064335264,-0.12540058302846488,-0.2868158507664579,1.456383864866088,walk
71.46,-0.5616756372482974,1.242301423451861,1.8538481075482696,-0.26336372053260737,-0.13875084911783425,-2.4893555606000035,-0.9829396263793345,0.34118372309190664,-0.021174357224049395,0.11448277142595213,1.2962139838579674,0.20893114126902218,-1.4200211469798036,-0.35133772284024756,0.4172071676641008,0.5528351859069918,0.26424322412993045,3.1077219394166575,-1.1406158466960252,0.32774181183452905,-0.11493156618757232,-0.20916908169882148,0.12727042112601633,0.2983866802245344,walk-stand
71.56,-0.22738056157190326,0.15588319968091807,1.0627185931526044,1.0921215257621089,-4.880096101287963,1.7322905245826188,-0.5838916968611867,0.06847125305282671,0.08290601849750974,-0.8680692014098813,-3.289062556299161,0.9171976025756907,-0.9212290613830267,-0.4222458685966058,0.24198365817337125,0.8344707043902254,0.9000973043689399,2.100987813866209,-0.8873127449297655,-0.1208726866456548,-0.06531079543367203,-0.955081624382659,0.030010038317618677,-0.22128868462484497,walk-stand
71.66,-1.1451883094486903,-0.11193407871479158,1.1805194452370988,0.7439428765952513,-5.066695691187615,0.8277720120511953,-1.494024543132064,-0.13957289538420925,-0.48028369685735817,-1.4016960032386387,-5.573872958740388,0.2913204685887104,-0.6700251309798315,-0.15058800025995175,0.24493774286263864,-0.17492020483582116,0.5600112037592848,0.67163972628108,-0.7723110798159025,-0.13895951563506842,0.050347839646197615,-1.004316198122516,-0.027774095792090992,0.25149167465804323,walk-stand
71.76,-2.0875699542980106,-0.08840971047106232,0.4797084813899529,0.7216641627796807,-1.966858383949101,3.321717996513802,-1.361253772884339,0.19362717378705502,-0.9250144939477455,-1.0404963995562833,-4.163027504612337,-0.06534650383303468,-0.8281362273110189,0.43401912669561266,0.14182805954699185,-0.3807582548580663,0.041965690379796104,0.37728417969568856,-0.8642412664112525,0.010205067663519746,0.03769158486349976,-0.945868542910634,-0.21659689443482769,0.647860770115512,walk-stand
71.86,-1.526291902993338,-0.20653191922500574,-0.47226940416202756,-0.19012504911074807,0.9287001243371982,0.20337226976919806,-0.8269845460994626,0.08982689001678217,-0.7778539594191873,-0.3039345710177472,0.3902109437494431,0.020013318916436106,-0.9159990005800062,0.2935369733600544,0.22074520881178458,-0.27731038618380544,0.04327401131568463,0.6159472650445121,-0.9873767104604714,0.0646983567986256,0.29445105224389506,-0.7791658263145484,-0.468949971076502,0.25951222361789306,walk-stand
71.96,-1.366571298172137,0.0504956714923079,1.174418433695058,-0.8315196576578583,2.018146879264098,-0.027685404255173084,-1.3844058910336279,0.08991098524354976,-0.303223046240933,-0.9527777086595345,1.9146359733236231,0.1334603984485534,-1.319091688732824,0.07051170680476879,0.27137756631671045,-1.241023200479885,0.2609150209266521,-0.27421524908904066,-1.2417367469285452,0.37778918520003696,0.16973378305894654,-0.9401539513348574,0.6395407285004122,-0.6616473062691639,walk-stand
72.06,-0.6048239154834583,0.160067933714517,0.8732003743319453,-0.20383288149204812,-0.11024110219065653,-0.1115016232953245,-1.0282878507774718,0.11564681638569332,-0.16336261322444987,-0.2658379579954548,1.1029561116041044,0.1439098600497914,-1.0510710448967948,-0.29685555315522916,0.11348885906732423,-0.5215705418103813,0.1950407427441848,-0.9887277809817615,-1.1408693369988918,-0.09801479192668999,-0.386359633959518,-0.8558164052485289,0.38406912282920236,-0.16059087215783677,walk-stand
72.16,-0.5303038292745691,0.14652127850953622,0.7939861946140379,-0.0684702018653095,-0.0694473173533244,-0.05122904426601027,-1.0133366213224515,0.1037008329077348,-0.06630576941039996,-0.12548589789567166,0.25005953888666854,0.08074171243233834,-0.9865522121151292,-0.006108054020018594,0.1243320174131689,-0.29067412380710345,0.07578253926387565,-1.0607177909882908,-0.8982901606972646,0.21580801139952613,0.015289298637419272,-0.2810653878354143,0.09025753524838741,0.44555822546794205,walk-stand
72.26,-0.5444842763214709,0.13813257907865242,0.8324799637152003,0.08561903543872018,-0.10810399270097568,0.01439134447179181,-0.97832793345051,0.14050400426426868,-0.0214469008236247,0.052890791079945966,0.0982338637536865,0.04977928168477862,-0.9669069649345412,0.010838507402978845,0.11020118289122804,-0.08381824077481162,0.019345999825675645,-0.9316474309254034,-0.9025400972902846,0.2245851183553477,0.02733647735958496,0.09745958915034357,0.09766939756703229,0.0907399456804486,walk-stand
72.36,-0.5423569376539723,0.16061282547115205,0.8494233728417097,-0.12432807548876541,-0.1423271403400616,-0.1591067265058956,-1.0063048456826276,0.15305932074169165,0.0045377402861622,-0.056968696430337515,0.11516592382654753,-0.05022205913287574,-1.0000680114112348,0.022552932357444152,0.09584438028544,-0.1860520419184573,-0.0765497139337802,-0.8429296685274938,-0.9404423886662684,0.18058827045019726,0.059547150537530416,0.44545624179617765,0.054180264058372486,-0.24918514498143232,walk-stand
72.46,-0.5254862376795508,0.13873026289411974,0.8537266476967785,-0.10661665326326039,-0.10391411551407237,-0.08227932306495236,-1.0028165553154063,0.13258948719332894,-0.016876482858386166,0.007233594436289961,0.4297721956036429,-0.0958081695245882,-0.9845545044572843,-0.06578855262805158,0.1512902157957016,-0.10384767091103479,-0.11137735329488763,-0.3990304216658812,-0.9703310528557939,0.08927309572848931,-0.03952135145329328,0.3590938912524022,0.06809398482892129,-0.5183032654832133,walk-stand
72.56,-0.5098197817273763,0.10816888554584059,0.8395784689339514,-0.1852054095813856,0.01750601027164356,-0.17351182347851088,-1.003109501819187,0.09947854516508904,-0.13225284908928375,-0.06955233531520891,0.31569705975327633,-0.07005801978768258,-0.9639568025102709,-0.26652558485249644,0.1799395047123215,-0.14074635218295845,-0.0829777557855754,-0.2131351072371781,-1.0550148992197863,-0.14737526534122636,-0.09258336664533663,0.4117776574426425,0.04414924817420095,-0.12246488016573683,walk-stand
72.66,-0.5290389036034848,0.09180628497885521,0.8347106580272087,0.04044201414638533,-0.007240260851736799,-0.06669426996828037,-0.9767818636323436,0.10688542187903757,-0.15884392899825725,0.15600587013522368,-0.024571067182532262,-0.0651039458171196,-0.9474626410948404,-0.2791886314807914,0.16922034045862072,0.1403750874713226,-0.0609710164453976,-0.1630541013279309,-0.9831270353895235,0.027831907819198067,-0.09410665208685613,0.49873394823815886,0.3112873949217422,0.10122616138484246,walk-stand
72.76,-0.5035529580352089,0.09817842812432208,0.8531414121841838,0.0761623675750154,0.016218861454922982,-0.03224467521022206,-1.0023441373166577,0.07941452683710014,-0.0697812545585933,0.1805042558322212,-0.08240710270584214,-0.059008620324966475,-0.9752804142464194,-0.12575288237261437,0.1986633405007418,0.18777403640919216,-0.0469091326584158,-0.05991010215125553,-1.0036642565880796,-0.010542147438494071,-0.11503512366868589,0.47153127524376515,0.23102859663876232,0.07045743851411712,stand
72.86,-0.5306057054104218,0.1100396378059918,0.8451387265128124,0.025015758576323967,0.014206348901608443,-0.01223368777301574,-0.9798832482069961,0.10343301651518766,-0.09539773966947383,0.10348609254008836,-0.04476795298439929,-0.0602160213333068,-0.9605195761183886,-0.16969442029944176,0.1852269737513113,0.1088559511189627,-0.05303327169345762,-0.03714196769332743,-0.9956323817326554,-0.017200727940039507,-0.07985417176107092,0.19665702042768876,0.08762519634483565,0.057540668536245176,stand
72.96,-0.5211365800497023,0.1037366585691942,0.8460497552372761,-0.009212487355608454,-0.009814208187407532,0.007244356918419044,-0.9914750780511523,0.0806208368497339,-0.08199072048653208,0.04436718255547105,-0.008885875030690016,-0.05806971793816702,-0.9659013657219736,-0.1450204097173283,0.204348146320189,0.05059872281976281,-0.05417976242094715,0.005357017669425875,-0.9976485722059344,-0.010557174445542494,-0.09126977660934928,0.060201481538651735,0.06397281471952651,0.06472307143525721,stand
73.06,-0.5247895423914195,0.10314782114619983,0.8458164720142219,-0.007474680903898334,-0.008283622481852819,-0.016876075849616253,-0.9924373120402062,0.07894546786773746,-0.08978065261521037,0.04056474869104248,0.009721193651188976,-0.04036540004265686,-0.96617768173625,-0.15659566516093265,0.20817590423531337,0.04378958508901321,-0.03694702895443561,0.013797483846429117,-0.9969973084414956,-0.009413676385055199,-0.06705721092565833,-0.03205562691223475,0.010361023739698395,0.021589788881714308,stand
73.16,-0.5211233200808101,0.10353104728614829,0.8453018629362952,-0.022170680535565226,-0.00979819711509969,0.002025934191909,-0.9873704976917417,0.0749516697205574,-0.08970176989267427,0.01097586575802016,0.041182057808571246,-0.037273636022188604,-0.9619436222389972,-0.14559363432784234,0.20521148441030984,0.01201008410895919,-0.0359547747606849,0.03375878153914283,-0.9985681624429349,-0.014246629126779606,-0.07859530227917813,-0.13456767901772837,0.0008844838852951492,0.04000202649094241,stand
73.26,-0.5209686043035454,0.10292193798630951,0.8501403449989386,-0.025773380937571273,-0.033678889719958055,0.025000049927711016,-0.9935289764086127,0.07115380211313196,-0.09785616502641147,-0.01471990405839764,0.06302320065035596,-0.028133791558990224,-0.9666375181656239,-0.15311489023241406,0.2194730505296195,-0.01833718297798978,-0.028854274264637825,0.028507661572860783,-0.9979226719586641,-0.004501601880836695,-0.06440784053254002,-0.19420466701943412,-0.04981312000666164,0.025181968742957223,stand
73.36,-0.5248695269427782,0.09429974416750182,0.849734078969897,-0.03558569257850855,-0.02476219803796623,-0.08174196639827958,-0.992878744659258,0.08030211799552457,-0.11320091300072406,-0.029853724237059648,0.029303920257820488,0.014279472742241114,-0.9628539266486167,-0.18981345212819437,0.2236681265074711,-0.029926585363214974,0.01338222724288261,0.03570788796092601,-0.9994711481359738,0.023880917842580007,-0.13711991212391877,-0.17943170868929947,-0.10536102181851029,-0.05589386560099423,stand
73.46,-0.5046510257182513,0.08808389382859996,0.8399101322852452,0.1315219453855035,0.014416650136937537,-0.023272967279875083,-0.9944040829814158,0.04780209298490146,-0.13019652012396193,0.16102778350123123,-0.088063885094868,0.027407407892919185,-0.9569838668297461,-0.19483123389039297,0.19312647679221737,0.19123183154572448,0.039536903121795565,0.14074508719375758,-0.9822848961589363,0.04043781905109854,-0.02551117145101538,-0.32773263901150973,0.0712633716783869,-0.01015070334046177,stand
73.56,-0.5123957682351353,0.10843300184011725,0.8615946635523098,-0.0032638088339704855,-0.05556264762178268,0.14619875188874334,-0.9860424373653152,0.08500304754562402,-0.060225620986219516,0.05080457878208718,-0.08237413026470299,-0.11918732456759903,-0.9691879643949706,-0.07487374291211393,0.1234068939304717,0.08517230254354319,-0.11246292191677547,0.13498756225619965,-0.9946372682070912,0.08509842745649907,-0.05991248733109385,-1.2938649899488852,0.2677526070589201,0.19824845877680441,idle
73.66,-0.5326143858669867,0.11783833692500097,0.8838745051808058,-0.39013534250844384,-0.0944644026598592,0.01590479334157095,-1.0134142681687626,0.1114306503173789,-0.0627809133697401,-0.2405204470467567,0.15974374814347797,-0.2850763425264602,-1.0037870657099,-0.04708077612475871,0.14863464728247255,-0.22147402623086254,-0.2813513403943788,0.28170322801681247,-1.0138663885056072,0.06633686127453421,-0.005089436284489944,-1.5884707534943887,0.09090461108611286,0.29034184316378486,idle
73.76,-0.49077457628360016,0.05237158988446041,0.8508084709391138,-0.3771840070149529,-0.15164540280878963,-0.12723727395456222,-0.9944176785873855,0.01874638604963096,-0.15327142431685292,-0.058996147684960164,0.09501512826240469,-0.3768850613968785,-0.9660256893247435,-0.12156742228822066,0.187350730874887,-0.06973233103384195,-0.375186908075153,0.06225046697898551,-0.9593292276052919,0.13197347548478922,0.10637198249193466,-1.0076241942154396,-0.07157186750543136,0.1865966192404039,idle
73.86,-0.4930747450682806,0.012603248228875912,0.8860560683744613,-0.3352038926388185,-0.12461893208365182,-0.18917711634010953,-0.9984084147964655,0.00848569055393086,-0.09296882957080291,0.22300481892722993,0.12044094478254816,-0.5247234161234934,-0.9532205458040537,-0.014648416958290018,0.17864709939849105,0.1895516930746887,-0.5296101323330531,-0.026699729228008534,-0.8974209565926659,0.25528268612001837,0.1143472173913754,-0.6299810629698357,-0.05939331797772053,-0.1793356400598793,idle
73.96,-0.435348486711921,-0.03776654350835367,0.8742968470325149,-0.37762199627226434,0.07731404212012331,-0.16891643393817973,-1.0948512914452926,-0.13385946983611782,-0.16455880716263088,0.5165259610648176,0.11160656346065496,-0.7988801911294383,-0.9864994373292715,-0.14083531479090422,0.23182791878102083,0.4648332414275192,-0.8195754911670257,0.014128597443736807,-0.9269914194990602,0.2850757393857585,0.095621959088829,-0.6595691473101062,-0.22470747894738669,-0.48725766567739603,idle
74.06,-0.751344799314005,-0.020876958784619256,1.1063479410825865,-0.9626060200682703,1.6308809879099182,-0.514257197822764,-1.392565740710495,0.1417388864918215,0.10435868659804637,0.053306783292437945,-0.12075037784747886,-1.2902705598322597,-1.2453931694766243,-0.046903184949748655,0.2548477960383163,0.05798160404045375,-1.265528915862794,0.5989323180842566,-1.2075716807222119,0.14496172274416477,0.2311520660771139,-0.6401076647147168,-0.12793287777018938,0.04053557744266697,idle
74.16,-1.3967308263361105,0.9868827674215398,1.0639462668344608,-4.594389396903994,0.41018857823846855,-2.337888769704143,-1.0858798198432476,0.8644451943184478,-0.2253293268941528,-3.3606269153120656,1.1466221135189527,-1.2791696146268976,-1.1694092557759657,0.27015226769603834,0.03224438708124577,-3.432647194971019,-0.5848211807712727,1.753903816864343,-1.2008767015537338,0.22021929716143718,-0.08548387114551023,-0.8201788304135595,0.20144757824658344,0.056954801974964095,idle
74.26,-1.0325602747039018,0.8861472298989221,0.48183960818544513,-0.9806841166094117,0.03154453279969279,4.367009951566083,-0.9263313555725171,0.6850716750371727,-0.39687290722044427,-3.0255564575304503,2.144425560439659,-0.05211446627214313,-1.0504994227337114,0.02890046918839073,-0.014976323312534031,-2.617486146723823,1.4584968719126565,2.437118426102034,-0.9587820586583986,-0.1939028779974234,-0.15061865261558055,-1.4843746764203336,0.17999548419363418,-0.37542977897230145,idle
74.36,-0.211349027470282,0.1260950404087085,1.1327225576721731,-0.24116480002317506,-1.0912235829335806,3.5380216217251137,-0.7874536466675581,0.19624396526170512,0.006646154362417249,-2.8829236686285795,-0.25281108928948737,0.4635634558336112,-1.061830172509365,-0.1820991331051916,0.12553737954442645,-1.3713473333484854,2.3752502470793555,2.3376870142434543,-0.8102023847472545,-0.07265217124000102,-0.08521626040811311,-1.468631443484197,-0.008855976805130297,-0.16354169379024217,idle
74.46,-0.10938911212548211,0.28731606585685354,1.046518261093425,-0.2629326637366125,-2.76346688792528,3.3472483575842853,-0.7748346818714751,0.135148828104384,-0.01854260691551965,-3.232464296848865,-2.2725419017946002,0.220090690105805,-0.9798970646214056,-0.288841479857908,0.1906064492449115,-1.5597487931354301,2.29597284831733,1.873825420168745,-0.835504000073096,-0.07244819523014501,-0.042002438015369944,-1.62014255172873,-0.187055118820773,-0.06289696557305365,idle
