Header,foot_Accel_X,foot_Accel_Y,foot_Accel_Z,foot_Gyro_X,foot_Gyro_Y,foot_Gyro_Z,shank_Accel_X,shank_Accel_Y,shank_Accel_Z,shank_Gyro_X,shank_Gyro_Y,shank_Gyro_Z,thigh_Accel_X,thigh_Accel_Y,thigh_Accel_Z,thigh_Gyro_X,thigh_Gyro_Y,thigh_Gyro_Z,trunk_Accel_X,trunk_Accel_Y,trunk_Accel_Z,trunk_Gyro_X,trunk_Gyro_Y,trunk_Gyro_Z,Label
58.26,-1.7894136472051,0.792249453759373,1.66937495419756,-1.00826227234657,6.23137069946254,-3.63184636462383,-1.71507098035862,0.46126937083965,-0.150731329551609,-0.474454915875464,3.10658560889535,-0.92745795374469,-1.3686006573614,0.0550289550621921,0.0972123781800856,-0.884415586202117,-0.303833910333846,2.81738059098587,-1.17798788084424,0.194695032442076,-0.208033785126794,-0.521991216043739,-0.345243957208817,1.30503537873862,idle
58.265,-1.76997723668356,0.85751564223004,1.75871290066876,-1.0810451835337,6.07320253860353,-3.61519442379941,-1.67785727792761,0.460024763702586,-0.173053044284634,-0.465719694919045,3.04477285173265,-0.909376366821411,-1.3811426997968,0.0085979726155742,0.110244851297308,-0.856050344278268,-0.258020100959168,2.92192903917778,-1.16446862575166,0.236547614033621,-0.196265418822878,-0.542377720846156,-0.352327598829062,1.27913102121412,idle
58.27,-1.73415616275178,0.91666677042819,1.8440060048211,-1.1506012728714,5.8601488655722,-3.56006933754692,-1.63373304044235,0.45499968081404,-0.195042703386655,-0.460833738575173,2.97067853328726,-0.890337250045765,-1.39397704203,-0.0361444153525081,0.125386314818197,-0.828512409203646,-0.211375426759605,3.01938718578832,-1.15149168464599,0.276957037426003,-0.181918754975147,-0.55600055193362,-0.356281933170191,1.2436591709675,idle
58.275,-1.6814461917548,0.969536843669364,1.92574920803952,-1.21451912946447,5.59218847949618,-3.46712406302991,-1.58458386927422,0.446308750911852,-0.214350323616279,-0.460160910067131,2.88445693775091,-0.870513330756987,-1.40712005980813,-0.0783317786899228,0.142613287129485,-0.802083463631001,-0.163914756546103,3.10955596395874,-1.13948866319198,0.314903507820262,-0.165263679623826,-0.563544409744195,-0.356808761847939,1.19860138744186,idle
58.28,-1.61237142539924,1.01602813181163,2.00311922868922,-1.2704545246764,5.27044703205864,-3.33772553220267,-1.53148065704861,0.434255554938345,-0.229711083607902,-0.463883179684635,2.78621388281466,-0.85004277343241,-1.42052172265341,-0.117227880400798,0.161639221238748,-0.776870679512917,-0.11568523767434,3.19226954321669,-1.12884015327744,0.349351423802236,-0.14663880824447,-0.566048217774423,-0.353674736511581,1.14420863924949,idle
58.285,-1.52816390247612,1.05629801756199,2.07496243231916,-1.31630965302143,4.8972064665135,-3.17388673556649,-1.47528689783046,0.419387895741429,-0.240146143112739,-0.472043355139077,2.67600543825816,-0.829038355181197,-1.43404315799505,-0.152235919423267,0.181908730645176,-0.752855325714217,-0.0667737304899756,3.26740158866892,-1.11983036683522,0.379286050112254,-0.12648203994455,-0.56484117494166,-0.34673779420199,1.08104293948274,idle
58.29,-1.43065501614861,1.09070387365055,2.1399924171046,-1.35039856713522,4.47588079153401,-2.97819673061947,-1.41679041724365,0.402458955070906,-0.244847270559967,-0.484585669594759,2.55385066610364,-0.80759805473054,-1.44744750225758,-0.182927321270039,0.202659696622971,-0.729941395214132,-0.0173081047180899,3.33486947324538,-1.1125996267905,0.403811821077198,-0.105297345778596,-0.561462954801512,-0.33596891555723,1.00999219704259,idle
58.295,-1.32215970346256,1.11965656698972,2.19672851201693,-1.3715797848606,4.01097604053563,-2.75374906777906,-1.35666682474029,0.384339524529462,-0.243259140180107,-0.501389313981915,2.41975314924751,-0.785812678107948,-1.46040716538246,-0.209081200237846,0.223023738227988,-0.707996882078774,0.0325475622957322,3.39463323939347,-1.10711937594576,0.422262781267064,-0.0835994102268854,-0.557575221217775,-0.321457613280035,0.932243386036255,idle
58.3,-1.20534424365658,1.14347686481154,2.24351248410605,-1.37935043262267,3.50803244732579,-2.50407580597814,-1.29544374804303,0.365945886629004,-0.235142536742305,-0.522295722511958,2.27372598913015,-0.763770755783015,-1.4725223632411,-0.230714182173465,0.242093727426326,-0.686887828476057,0.0826025021481234,3.44668550481556,-1.10320865962339,0.434249521338069,-0.0618998954262346,-0.554876587525356,-0.30340282011209,0.849219949362659,idle
58.305,-1.08310110728003,1.16229536882807,2.27862051113855,-1.3739088617825,2.97349780334254,-2.23310482929885,-1.23347059348381,0.348194865363736,-0.22061442389165,-0.547132818349055,2.11582290804299,-0.741566081904917,-1.48333058735902,-0.24807818629702,0.258944163642159,-0.666511253186774,0.132650341467322,3.49103199909067,-1.10057538104181,0.439622540539732,-0.0407553521380574,-0.55502519077168,-0.282111886725744,0.762514591434237,idle
58.31,-0.958400255501453,1.17604526445081,2.30037190668266,-1.35616674432645,2.4145162637898,-1.94512515515838,-1.1709141893605,0.331949488450594,-0.200157937889277,-0.575727265678339,1.94617744469499,-0.719305284673146,-1.49230691204963,-0.26163294112355,0.272684343485813,-0.646818238616195,0.182477209780025,3.52766891671451,-1.0988476419592,0.438436355694798,-0.0207887087467095,-0.559561871252292,-0.25801813332109,0.673834248923522,idle
58.315,-0.834127991848596,1.18452861839006,2.30720745626606,-1.32768316028322,1.83868540930327,-1.64471906274826,-1.10780122185834,0.317952260267063,-0.174589372445316,-0.607898400385197,1.76504350680243,-0.697106073956425,-1.49887892376451,-0.272009421114834,0.282575593092029,-0.627814992021855,0.231866674679008,3.55656641662914,-1.09758777284927,0.430976109055241,-0.0026127063676002,-0.569835095730131,-0.231689032553613,0.584938902259507,idle
58.32,-0.713032379093854,1.18755436018122,2.29800677520868,-1.29053165622653,1.25381664706334,-1.3366625636336,-1.04429094936551,0.306814775303868,-0.144873770514332,-0.643444765050961,1.57282954298178,-0.67508332143656,-1.50246845958841,-0.279963725897187,0.288142797963568,-0.609546608185397,0.280607086203829,3.57766357232843,-1.09630869489247,0.417808396868955,0.0132946187762526,-0.58694340315112,-0.20379670737607,0.49755646250377,idle
58.325,-0.597655291379187,1.18497165784198,2.27219177037398,-1.2471380333498,0.667692812134661,-1.02582517447556,-0.98073103493899,0.298992005651874,-0.112074030558147,-0.682140159917379,1.37012158573326,-0.653330364653696,-1.50254263014923,-0.286313875513788,0.289222354143795,-0.592079441657398,0.328505933438082,3.5908757919081,-1.09450281734023,0.399781178432861,0.0266686517784033,-0.611706612646292,-0.175052380636305,0.413280203863647,idle
58.33,-0.490041249351035,1.17648125481615,2.22915762917815,-1.20010241690839,0.0878254062402709,-0.71705995091146,-0.917045481124066,0.294655510046492,-0.0776398094477779,-0.723737174247275,1.15769319794072,-0.631905054473889,-1.49865587857412,-0.291859876165378,0.285944977485038,-0.575486901844049,0.375403495612654,3.59611522834307,-1.0916872831406,0.377930195138276,0.0374321543862084,-0.64465535970622,-0.146130694429226,0.333477210326812,idle
58.335,-0.391691749728311,1.16168708745369,2.16849283153243,-1.15201072612604,-0.478782237410967,-0.415081087853738,-0.852825340633409,0.293705965927573,-0.0432290402099275,-0.767966672613964,0.936502755365467,-0.610824584470329,-1.49049222599225,-0.297304116167169,0.278667489884117,-0.559835995018106,0.421175378544716,3.59331599584389,-1.08746640335094,0.353340560983177,0.0455959575635828,-0.68602843236449,-0.117623589310037,0.259237081862683,idle
58.34,-0.303856610091201,1.14035840671686,2.09091451314771,-1.10526982451887,-1.02586681594444,-0.124372933633485,-0.788161042533823,0.295931196553346,-0.0101734696252632,-0.814540569507631,0.707677653735453,-0.590069338885038,-1.47790763421997,-0.30318873770944,0.267887267002235,-0.545182402631617,0.46572981591567,3.58245309370812,-1.08158464140606,0.32704498077536,0.0511883769087054,-0.73578243522904,-0.09003607936239,0.191357421923958,idle
58.345,-0.227584332784513,1.11243917132074,1.99826483997094,-1.0619847714476,-1.54810720063591,0.150863698870128,-0.723689604391963,0.301030944488555,0.0205487704048216,-0.86316199916123,0.472484983629582,-0.569594502401093,-1.46094523951795,-0.30985366278484,0.25418621692778,-0.531576392466822,0.509004755503037,3.56355530699941,-1.07394326413554,0.299956398730005,0.0542527917825028,-0.79360756477586,-0.0638050003951531,0.130349114430909,idle
58.35,-0.163623051616759,1.07799106331586,1.89309999063444,-1.02385932573988,-2.04126308508096,0.4067705694433,-0.660292550588269,0.308564267463504,0.0481640994223691,-0.913526922668517,0.232291150148677,-0.549344097735661,-1.4398179662235,-0.317424716940646,0.238215302122363,-0.519065897926533,0.550956435920954,3.53671511982349,-1.0645817498002,0.272819979893767,0.0549001144148632,-0.858938979169965,-0.0393252219075686,0.0764616160095092,idle
58.355,-0.1124092538521,1.03721941808474,1.77852742181237,-0.992117531414343,-2.50224671595906,0.639908876092999,-0.5990229853844,0.317950882616597,0.0720995043588097,-0.965314443173092,-0.0114852101204266,-0.529262080843816,-1.41488292486599,-0.325836852530422,0.220682955786913,-0.507692005316237,0.591540258521626,3.50209596412232,-1.05364585328342,0.246202336428091,0.0533800541901591,-0.930972748739916,-0.0169617182525083,0.0297214295335879,idle
58.36,-0.074078344263623,0.99047240550763,1.65804803828925,-0.967469195683432,-2.92914192988805,0.847328117497153,-0.541030382069715,0.328504761628318,0.0919838721688934,-1.01817986073473,-0.257422804388042,-0.509302346126181,-1.38661485830922,-0.334875605739832,0.202318018723303,-0.497487296752175,0.630693878593739,3.45993589833547,-1.04136818598326,0.220490978426687,0.0500859306083412,-1.00869215005476,0.0029566370218734,-0.0100276510200805,idle
58.365,-0.0484719092410253,0.938225132439022,1.53537231473758,-0.950124581051965,-3.32117648495494,1.02661252256424,-0.487480088044319,0.339467459415244,0.107647988897769,-1.07175365612378,-0.504145929671172,-0.489440589877809,-1.355561770032,-0.344221251896233,0.183830419969911,-0.488481136062952,0.668324049894551,3.41054588791005,-1.02804719679937,0.195885678900525,0.0454889865532691,-1.09089883773352,0.020138021483267,-0.0430784838257031,idle
58.37,-0.0351453928501006,0.881067205464109,1.41421121970401,-0.939842796468329,-3.67864127442746,1.17591403874333,-0.439477973668557,0.350035539699212,0.119118694844242,-1.1256418054826,-0.750366802853272,-0.469684736686887,-1.32228518177653,-0.353495237720219,0.165895685941396,-0.480705482908836,0.704296287679897,3.35430698948012,-1.0139984753247,0.172415154699033,0.0400831450931918,-1.17625040643273,0.0343256905915239,-0.0698110506546104,idle
58.375,-0.0333977753656481,0.819687673598915,1.29807963816786,-0.936003866834089,-4.00275977927593,1.29397302001982,-0.39800693344185,0.359398745001359,0.126597185379071,-1.17942925430158,-0.994918607194753,-0.450080848992008,-1.28732091167699,-0.36231274301506,0.149148178676917,-0.47419849324182,0.738430981434654,3.29167156736105,-0.999507825628472,0.149992188662014,0.0343554018640803,-1.2633072372313,0.0453098002447112,-0.0906519451131205,idle
58.38,-0.0423195809838711,0.754866807299294,1.19012643505619,-0.93769994195984,-4.29553003537616,1.38012018209249,-0.363874856572573,0.366793064474257,0.13041979057258,-1.23269108178222,-1.23678037320909,-0.430715679419866,-1.25117527505439,-0.37033548755771,0.134167934751799,-0.469009094087403,0.770508677527314,3.22316383954624,-0.984814081449983,0.12848600819594,0.0287654237936895,-1.35059398319067,0.0529504639063991,-0.106047988745925,idle
58.385,-0.0608423309457018,0.687485676038899,1.09297214898705,-0.943833922943054,-4.55955009223296,1.43426712267654,-0.337674984412442,0.371560197417761,0.131012396844561,-1.28501227062966,-1.47509414784595,-0.411716090570375,-1.21432867420479,-0.377311513504826,0.121458867119299,-0.465203194111655,0.800284932847641,3.14937451546361,-0.970100763453087,0.107777737699239,0.0237398176850099,-1.43667901749669,0.0572080136713327,-0.116454113935722,idle
58.39,-0.0877911786389285,0.618531914044576,1.00856408905718,-0.953212995314488,-4.79782429945,1.45689222788145,-0.319763048835666,0.373203786753031,0.128841715396018,-1.33601321076172,-1.70917136675002,-0.393245978037866,-1.17723324457292,-0.383097703493405,0.111412179324547,-0.462870297993474,0.827512342020423,3.07095217928224,-0.955492022478452,0.0877773928752183,0.0196626154783917,-1.52025279979854,0.0581764561528218,-0.122329371673939,idle
58.395,-0.121943083849695,0.549092840979335,0.938081072799544,-0.964629443298928,-5.01355817995397,1.44901677315552,-0.310249422156264,0.371433752242782,0.124365567451767,-1.38537525596485,-1.93848817391496,-0.375502727770681,-1.14031250355136,-0.387665715958708,0.104277013982796,-0.462129796925045,0.851963703925805,2.98859201219776,-0.941061699324604,0.0684290704755821,0.016853895991855,-1.60018687675608,0.0561054139843987,-0.124129711745453,idle
58.4,-0.162087573816443,0.480344819171838,0.881898905421861,-0.97692358871757,-5.20995741311099,1.41217123402759,-0.308999995395799,0.366191653612277,0.117988335605867,-1.43286502457281,-2.16267129738658,-0.358710506022878,-1.10395802058488,-0.391093898295542,0.100167183094322,-0.463135039139945,0.873456006089254,2.90301798129731,-0.926839814467914,0.0497330659722501,0.0155611385987286,-1.67557676084857,0.0514063577470645,-0.12230608672557,idle
58.405,-0.20707942498719,0.413526074320136,0.839595271133696,-0.989029383391846,-5.3900456728824,1.34835603811206,-0.315650911267138,0.35765006901688,0.110017644520594,-1.47836022424201,-2.38147390918452,-0.343108893882774,-1.06852223005785,-0.393548742941256,0.0990672591077605,-0.466076049357734,0.891878218910014,2.8149586891386,-0.912828026978123,0.0317452323622834,0.0159365994155338,-1.74576917039078,0.044649632085882,-0.117321164806463,idle
58.41,-0.255856988007672,0.349901879218284,0.809976664090392,-0.999997232740105,-5.55649432989069,1.25999767935118,-0.329647090878166,0.346186876458422,0.100627590486272,-1.5218629088024,-2.59474423652849,-0.328942084774771,-1.03431270439993,-0.395251475449542,0.100804030206578,-0.471178920448477,0.907207799467545,2.7251197764158,-0.899045997907033,0.0145201795973387,0.0179680374786473,-1.81037536228659,0.0365366729866616,-0.109652516185841,idle
58.415,-0.307438832797061,0.290751618786388,0.791178216333666,-1.00898342993378,-5.71145244774444,1.14990886091267,-0.350293593200141,0.332352238464826,0.0898488632656935,-1.56348253547276,-2.80239380880557,-0.316448662316319,-1.0015847631641,-0.396437180314528,0.105048094142725,-0.47869313629952,0.919499973693503,2.63415606788541,-0.885563793696865,-0.0019292199899864,0.0214489031063797,-1.86928120635784,0.0278355990691085,-0.0997513807270057,idle
58.42,-0.360948929733175,0.237354719703142,0.780875653310796,-1.01522248397824,-5.85641444049147,1.02125315257832,-0.376798654687546,0.316840942782623,0.0775815124614685,-1.60340634035529,-3.00436778744016,-0.305844553654205,-0.970535807228828,-0.397328643390584,0.11139018203903,-0.488867974221962,0.928868816549328,2.54264896106171,-0.872478430412845,-0.017590409366523,0.0260587133554701,-1.92264889440598,0.0193170978042991,-0.0880021384388456,idle
58.425,-0.415666719582842,0.190947132629917,0.776546611593964,-1.01801220888081,-5.99216855929692,0.877499973993563,-0.408301690830083,0.300459465200416,0.0636019361367327,-1.64188373451497,-3.20061488391127,-0.297300205532727,-0.941313737150124,-0.398133226232224,0.119403304666691,-0.501931343701298,0.935483808224927,2.45109184156225,-0.859888109788244,-0.0323899635428305,0.0314467383892118,-1.97089855903446,0.011723862331888,-0.0747301546754382,idle
58.43,-0.471053312210124,0.152666210935538,0.775715679428172,-1.0167154421151,-6.11883220590807,0.722379626821555,-0.443897112095951,0.284068860317763,0.0475607403817733,-1.67922039794218,-3.3910580887227,-0.290926285334089,-0.91404013106639,-0.399049491404124,0.128631721556504,-0.518082095883785,0.939571387660371,2.35987785848161,-0.84792056943874,-0.0461883074460541,0.0372229111015095,-2.01466533608468,0.0057441529885166,-0.0602293395856129,idle
58.435,-0.526733920098427,0.12349325278927,0.77614663655064,-1.0107636747083,-6.23595875972733,0.55985806576038,-0.482677694994602,0.268502581677862,0.0290014204049058,-1.7157649906454,-3.57557230978036,-0.286774392778385,-0.888814800612062,-0.400251107813726,0.138583728978421,-0.537493050765086,0.94140284444071,2.26928558142459,-0.836765570098091,-0.0588439841830842,0.0429347727515215,-2.05473474193411,0.0019592973306156,-0.044771034771146,idle
58.44,-0.582445591532794,0.104196493705474,0.775964182410732,-0.999647275326305,-6.34266544194068,0.394117034515996,-0.52380105553173,0.254491697306085,0.0074221907961198,-1.75187562083227,-3.75396974398326,-0.284839747019156,-0.865675748074441,-0.401834702579962,0.148767146402363,-0.560304261089505,0.941264410210043,2.17947434001738,-0.826650251421358,-0.0703309514004366,0.0481005904802816,-2.09197659909152,0.00078954085914,-0.0285825983983941,idle
58.445,-0.637969937783028,0.0952867980671856,0.773761676224282,-0.982891073436934,-6.43774741929975,0.22951732134348,-0.566545094940926,0.242630435877711,-0.0176309529555485,-1.78786620672102,-3.92599142372648,-0.285056882101802,-0.844570459204308,-0.403776772464751,0.158723453759296,-0.586595788501195,0.939415535550641,2.09050107204738,-0.817797218984903,-0.0807943578608512,0.0522570316511678,-2.12728960279402,0.0024606762369729,-0.011794533239102,idle
58.45,-0.693077733804226,0.0969749879609348,0.768712779560202,-0.96004051169511,-6.51980758172738,0.070540109201882,-0.610330177191362,0.233367883316251,-0.046479376810185,-1.82396182316611,-4.09131151708471,-0.287296581858969,-0.825393869352556,-0.405939012570228,0.168056208260064,-0.616361968660532,0.936055691621053,2.00234552182436,-0.810416285613156,-0.0904541033800094,0.0549982701617541,-2.16154547498986,0.0069844722539038,0.0055980207248363,idle
58.455,-0.747486980769574,0.109128201227928,0.760595972885377,-0.930673112293817,-6.58741216645963,-0.078291897022789,-0.654727599991402,0.226989755353916,-0.079261618882654,-1.86028431458955,-4.24955718279439,-0.291371230025467,-0.808043649697605,-0.408094201517948,0.176466247513811,-0.649505861237349,0.931313071965507,1.91492797758157,-0.804707230571186,-0.0994804100399821,0.0560214703964027,-2.19552941880045,0.0141519476361133,0.0237183447736001,idle
58.46,-0.800820587241585,0.131251309660312,0.749701511935178,-0.894416449709818,-6.6392222207329,-0.212503016685515,-0.699471155115022,0.223590579012431,-0.115908700449119,-1.89685231914656,-4.40033670451261,-0.297045532549225,-0.79243822603476,-0.409938775137966,0.183777621252938,-0.685843478396384,0.925243395474457,1.82812436823878,-0.800844571990334,-0.107957936352908,0.0551684286139182,-2.2298882637637,0.0235450956662942,0.0427649814139743,idle
58.465,-0.852586766088026,0.162501728861514,0.736705925192948,-0.85096189146927,-6.67406986565778,-0.327752565849586,-0.744454483493383,0.22305978223204,-0.156142668315691,-1.93358399048634,-4.54326864059018,-0.304049811446913,-0.778512227237627,-0.411107478609545,0.189934626713159,-0.725109414328085,0.917830658197229,1.74178510694516,-0.798955135555916,-0.115901471032075,0.0524442779965242,-2.26509324480334,0.034565914976522,0.0629699146133895,idle
58.47,-0.902201771821266,0.201727455623437,0.722574479840517,-0.800079456447443,-6.69100824632969,-0.419914188860817,-0.789706486553844,0.225088800148913,-0.199504303533795,-1.97030701864181,-4.67800575718874,-0.312099466755277,-0.766214306324723,-0.411208505985806,0.194965703956478,-0.766970321612199,0.908991492693831,1.65575568722458,-0.799105765718363,-0.123291509246459,0.0480190846206381,-2.30141367664233,0.0464759884473851,0.0845637844481528,idle
58.475,-0.949022161437451,0.247524352948358,0.708451966402601,-0.741636506860191,-6.68935740600971,-0.485142197842172,-0.835372056671847,0.229199524446266,-0.245384279609837,-2.00677761393654,-4.80425163018301,-0.320922698044117,-0.755512739364066,-0.409856380725617,0.198946527132454,-0.811049438055645,0.898582104763927,1.56989926393501,-0.801294878801651,-0.130107068201469,0.0422320525322215,-2.33889635842764,0.0584446368146489,0.107758342912819,idle
58.48,-0.992357935006758,0.298320964892196,0.695501404313927,-0.675626258672181,-6.66870728957089,-0.519938371479324,-0.88170554290542,0.234787311510066,-0.293038290237857,-2.04270832551134,-4.9217722802871,-0.330289387796516,-0.746396421539239,-0.406674347160607,0.201997813332774,-0.856956254506756,0.886409847917006,1.48412375005387,-0.805436042773076,-0.136309783730838,0.0355748423268729,-2.37735523543426,0.0696103200635845,0.132736770449455,idle
58.485,-1.03149985764843,0.352481541230992,0.684765915176318,-0.602205653666752,-6.62885054220394,-0.521217173465649,-0.929043297992456,0.241165361889666,-0.341611535257163,-2.07780103586921,-5.03040172475219,-0.340032489967521,-0.738872838746739,-0.401294309179806,0.204303311956814,-0.904313954532108,0.872250391300817,1.39840718876667,-0.811349655454294,-0.141779568183702,0.0286354710426725,-2.41638514324648,0.0791422875913894,0.159630828254703,idle
58.49,-1.06581504404299,0.408393196274216,0.677142792348728,-0.521742654869388,-6.56970330798211,-0.486358943896476,-0.977745833902979,0.24762878733891,-0.390196415583373,-2.11178864058506,-5.13004100759608,-0.350063540994849,-0.732990433698682,-0.393409127694193,0.206100748230503,-0.952791074317508,0.855871193162966,1.31281021742545,-0.818782619044889,-0.146275753646106,0.0220741652947741,-2.45539985877789,0.0862930558228393,0.188477182802785,idle
58.495,-1.09486993279311,0.464616559755821,0.673610152937885,-0.434877550372332,-6.49127871728095,-0.413270221591459,-1.02831628806856,0.253575041674421,-0.437804138753494,-2.14449079027192,-5.22065428874916,-0.360386524863572,-0.728863268626119,-0.382845895208434,0.207639299869937,-1.00214504428405,0.837061248283548,1.22747822768552,-0.827442334535697,-0.14947114729932,0.0166286220051063,-2.49367346617945,0.0904615174864144,0.2191780430021,idle
58.5,-1.11849337035807,0.520046253988331,0.675295867195942,-0.342571499097937,-6.39369947204264,-0.300437789182062,-1.08142236721635,0.258586110809901,-0.483347348503762,-2.17586598376478,-5.30226076617367,-0.37110308992441,-0.726649318611189,-0.369580157318421,0.209158086695783,-1.05226194340728,0.815657140379286,1.14263691390848,-0.837020742860062,-0.150978967139182,0.0130354250695688,-2.53038443482251,0.0912537168871331,0.251488319680364,idle
58.505,-1.13687695062456,0.573826606049509,0.682776692137397,-0.24611988357687,-6.27720932577083,-0.146941600921702,-1.13728454259737,0.262380620592112,-0.525983340823607,-2.20604744275984,-5.37491873081923,-0.382403594386285,-0.726506374704087,-0.353710648066511,0.210884828019435,-1.10318193704583,0.791560464509194,1.05857398103528,-0.847205807714734,-0.150358671949331,0.0119120571412173,-2.56467925596064,0.0885037339296922,0.285003830471243,idle
58.51,-1.15070871871651,0.625281038776345,0.695791472066535,-0.147159040358641,-6.1421689874775,0.0475348813600263,-1.19546605447346,0.264840088225522,-0.565294788511001,-2.23537224643336,-5.43870446645882,-0.394551383726813,-0.728561844148507,-0.335451757937003,0.212994263426099,-1.15512037549127,0.764750537101197,0.975617747186093,-0.857689510893141,-0.147214799581674,0.0137201257439791,-2.59573692373489,0.0822705383279783,0.319156181436037,idle
58.515,-1.16114892167094,0.674074528987185,0.713838793366859,-0.047676654040707,-5.98903645898063,0.282653523693823,-1.25542950607687,0.266137027093867,-0.600976737608933,-2.26439651780846,-5.49369175281978,-0.40786157315888,-0.732889610057291,-0.315123136352373,0.215574427683053,-1.2084770624313,0.735287937363552,0.894130762560147,-0.868179443616518,-0.141309057662107,0.0187665139342815,-2.62280755986734,0.0728340045157828,0.353259352432825,idle
58.52,-1.16975747315646,0.720262435591305,0.73630309188377,0.0500114337284282,-5.81833645185271,0.557370324665504,-1.3166516266865,0.26673578720988,-0.632745998488483,-2.29388129764062,-5.53993745245424,-0.422664646700644,-0.739502110309846,-0.29312058312676,0.218675415732902,-1.26381623551347,0.703307062701377,0.814503803312298,-0.878417927450351,-0.132517564260996,0.0271842453722329,-2.64524017977862,0.0606753811269564,0.386573964292273,idle
58.525,-1.17848500877671,0.76416069337058,0.762269486025804,0.143319174431265,-5.63062894897774,0.869915536647583,-1.3784463865745,0.267333581779914,-0.660461164533856,-2.32476455978348,-5.57747424972267,-0.439259835328465,-0.748357128324847,-0.269899688423379,0.222343957248097,-1.32183291050944,0.669008662713309,0.737131821159392,-0.888202935777383,-0.1207650528238,0.0389194396074602,-2.66251666079251,0.0464401443901746,0.418328368837404,idle
58.53,-1.18964908940877,0.806197275697971,0.790565976200354,0.229440684106721,-5.42649973271608,1.21775484709607,-1.439970480707,0.268858074943975,-0.684123591819389,-2.35814120673407,-5.60630356605249,-0.457877534219636,-0.759350112129422,-0.245962680518833,0.22656468391797,-1.38333299414608,0.632655926576938,0.662388407728696,-0.897400866541817,-0.106094782343298,0.0537200625536411,-2.67427299123324,0.0308943248545481,0.447734754745785,idle
58.535,-1.20583064907204,0.846813367451471,0.819791848116819,0.305394693315711,-5.20657221306286,1.59751099643526,-1.50026209225671,0.27243874253514,-0.703856067162485,-2.39524028668047,-5.62638598961872,-0.478652198940124,-0.772294066108894,-0.221807661478376,0.231227359539837,-1.44921779674473,0.594566003275837,0.590615225323781,-0.905944689761953,-0.088729328652758,0.071114411265204,-2.68029374542723,0.0148676267279136,0.474042572160019,idle
58.54,-1.22967600780254,0.886422885477072,0.848309210789144,0.368108099085806,-4.9715038681348,2.00491023439813,-1.55829590117256,0.279294884341962,-0.719894545357476,-2.43737491604571,-5.63763332096664,-0.501592620861347,-0.786907235620083,-0.197852744118,0.236188659326508,-1.52044456112132,0.555092229931132,0.522117749560592,-0.913816008011798,-0.0690308452801627,0.0904216800699756,-2.68049811053095,-0.0008192427257824,0.496589856589101,idle
58.545,-1.26367597912109,0.925366173413777,0.874276759288331,0.414560874020916,-4.72196974734983,2.43480014032654,-1.61303435493844,0.290598875224547,-0.732588049499247,-2.48585702974656,-5.63990237640005,-0.52654941454894,-0.802812735523741,-0.174375504455772,0.241334065019696,-1.59795448674948,0.514597523826912,0.457163193197686,-0.921024674305701,-0.0474765299856024,0.110809607049912,-2.67493321285021,-0.0154247033076924,0.514836268781935,idle
58.55,-1.30996252297188,0.963830126578751,0.895748972581419,0.441972943041646,-4.45867188048198,2.88122207112765,-1.66346899461162,0.30737509707071,-0.742377644473325,-2.54189079542255,-5.63298993347025,-0.553189404088885,-0.819554374901687,-0.151474614457564,0.246588567696588,-1.68258196999832,0.473425152008647,0.395984973947875,-0.927599688562812,-0.0246607582288821,0.131349277383431,-2.66376848746006,-0.0283437574192981,0.528397251051826,idle
58.555,-1.37013035364541,1.00174426509731,0.91077240530466,0.44798958126457,-4.18238142356639,3.33750315795929,-1.70864997828594,0.330423925768108,-0.74977366461515,-2.60646893075248,-5.61662980115658,-0.580984317290615,-0.836638583206055,-0.129059180915652,0.251916441636992,-1.77496745037102,0.431876806930898,0.338791822863202,-0.933579310840384,-0.0012489885085128,0.151092810326702,-2.6472804425951,-0.0391587396298316,0.537067230466152,idle
58.56,-1.4454338982023,1.0384134523926,0.916645493591155,0.43083324637027,-3.89399187540184,3.79635740655723,-1.74711895029075,0.360168243516599,-0.75605298951069,-2.68028764710094,-5.59049466801301,-0.609215557749839,-0.853601744659972,-0.106890675854743,0.257332971675978,-1.87548743967698,0.39020327801454,0.285780944581781,-0.938987909877192,0.0220980490970362,0.169251338230896,-2.62582832527002,-0.0476584150479781,0.540817447415827,idle
58.565,-1.53697274679639,1.07236354510787,0.90957670454097,0.389416548784042,-3.59456239621516,4.25001006989878,-1.77672446973051,0.396593109618545,-0.763748788492093,-2.7636821980805,-5.55420508223735,-0.636989414949621,-0.870051343191279,-0.084642123271894,0.262885818888072,-1.98420104497617,0.348609687689052,0.237154532044857,-0.943822619996957,0.0447420350749876,0.185321950402738,-2.59982965527807,-0.0537907979379916,0.539775717324959,idle
58.57,-1.64444997508694,1.10240579891133,0.887505737836666,0.32344384132363,-3.28534844267218,4.69036742313464,-1.79668673220573,0.439516267422397,-0.774281244906035,-2.85655414246753,-5.50733583815462,-0.663257920191395,-0.885634249169101,-0.0618912686859834,0.268587320679972,-2.10078778759636,0.307263852228853,0.193134769719112,-0.948072444404525,0.0660105967940561,0.198961743841638,-2.5697391041988,-0.0576093306321643,0.534221695142914,idle
58.575,-1.76543348143447,1.12802155312209,0.851131946615373,0.233518067307486,-2.96784412906098,5.1092461602123,-1.80807637855702,0.488552529721614,-0.786818750918744,-2.95827126659072,-5.44941299039226,-0.686852895247197,-0.900011991420559,-0.0380924825653096,0.274390431438893,-2.22446380424995,0.266294285159871,0.153972778293411,-0.951741412736055,0.0852260425272703,0.209824315161511,-2.53602660704089,-0.0592923999579327,0.524607230498227,idle
58.58,-1.8967064001108,1.14822691070103,0.800980201697671,0.121191256842025,-2.64383927979456,5.49863542945589,-1.81153749584376,0.542729549091658,-0.800897242556936,-3.06759951934831,-5.37991495024453,-0.706540791556177,-0.912913371998185,-0.0126440858498972,0.28024701615677,-2.35393017683776,0.225795930206684,0.119944832388108,-0.954839910792316,0.101861033231084,0.217642170029287,-2.49915215239759,-0.0591759289931224,0.511533415933736,idle
58.585,-2.0348793076548,1.16133276177469,0.736835311355524,-0.0110826423087572,-2.3154513883141,5.85095856695013,-1.80694436984975,0.6004584628597,-0.81715957249848,-3.18270446993843,-5.2982823251326,-0.721091249041596,-0.924173732316545,0.015002548010352,0.286129932236447,-2.48738398424165,0.185856262596377,0.0913388611642302,-0.95735799100584,0.115576648386947,0.222401744245031,-2.45954578209278,-0.0577139159380298,0.495672030953134,idle
58.59,-2.17622604319052,1.16539333424304,0.658925261976778,-0.160044454047099,-1.98512559004611,6.15933872113441,-1.79430475344457,0.659693008907772,-0.836448999654548,-3.30117873679749,-5.2039226222717,-0.729352723927285,-0.933707318344777,0.0452947671946377,0.291970381920985,-2.62255154169202,0.14658036909206,0.0684477091947928,-0.959254830209901,0.126093097098782,0.22438558803636,-2.41760775191102,-0.0553958562583114,0.477721816339909,idle
58.595,-2.31683502361407,1.15836745690347,0.568018681700683,-0.321752413608433,-1.65561125827315,6.4178599012905,-1.77382280349479,0.718032681279667,-0.859632465342023,-3.4200818765513,-5.09621190859052,-0.730332359516867,-0.941487575546618,0.0785468755192552,0.29760418959826,-2.75673050532114,0.108106577051188,0.0515694504362939,-0.96047872359907,0.133153754918325,0.224074653428124,-2.37372343002237,-0.05267226918647,0.458416608950084,idle
58.6,-2.45250635857503,1.13823568733597,0.465184527234893,-0.491757573509891,-1.32988604643267,6.62177827578818,-1.74557232747033,0.772807310155328,-0.887314300463444,-3.53602385729369,-4.97451058914922,-0.723272999227469,-0.947558270926204,0.1148848173919,0.302775751313087,-2.8868679926039,0.0706225661626534,0.0409952461967803,-0.961005895076994,0.136651240295372,0.221967003958262,-2.32826858325138,-0.0499153119403532,0.438514520742815,idle
58.605,-2.57901622477587,1.10306933313184,0.351744273562424,-0.665333815217933,-1.01103322052299,6.76765512105483,-1.70949859558292,0.821207585946492,-0.919800021454316,-3.6453067697668,-4.83819295700867,-0.707722178311993,-0.952033797240492,0.154212052761866,0.307183184032705,-3.00969009241094,0.0343806703422848,0.0369772201595614,-0.960864265660335,0.136707815693635,0.218463498469899,-2.28159940692316,-0.0474288162998247,0.41874243621793,idle
58.61,-2.69271141130715,1.05118750484141,0.22943449492631,-0.837711901592609,-0.702104527816865,6.85344271123357,-1.66580840418639,0.86047186444471,-0.957261591069994,-3.74410031462984,-4.68667815713547,-0.683584744394956,-0.955083807834506,0.196205666050454,0.310542319056274,-3.12185900741748,-0.0002956836664381,0.039693825148995,-0.960122701822214,0.133601883761856,0.21393982432559,-2.23404248701438,-0.0454640222051534,0.399737237900702,idle
58.615,-2.79071229991999,0.981397829765417,0.100334845195607,-1.00427252307509,-0.405965297754435,6.87855025137172,-1.61502861042838,0.888078192375936,-0.999679962092278,-3.82861755052904,-4.51946219159836,-0.651148661089913,-0.956915963384593,0.24031150334628,0.312623015967129,-3.22012290696023,-0.033016567915085,0.0492289144881757,-0.958873669191673,0.127672361901149,0.208830886385026,-2.18589342957152,-0.0441951920028596,0.382020992869451,idle
58.62,-2.87021596252721,0.893697265337581,-0.0319174810750539,-1.16072540136698,-0.125131370523199,6.84384162945725,-1.55865878113484,0.902142414700831,-1.04528050403543,-3.89530525900547,-4.33615760377148,-0.611083063543677,-0.957758889382805,0.285736421266526,0.313245492699344,-3.3014748762179,-0.0633374299608798,0.0655554225386947,-0.957237401173708,0.119321082048422,0.203552260796545,-2.13742274382347,-0.043692616847726,0.365993358393751,idle
58.625,-2.92791210564091,0.789775553989543,-0.161155277007601,-1.30330717108573,0.138370700327873,6.75152434579732,-1.49954406865555,0.901772187718645,-1.08924856271814,-3.94106987319163,-4.1365411351053,-0.564409310420052,-0.957845855938061,0.331456024164569,0.312280475258159,-3.36334574423345,-0.0907765513368522,0.0885134696301877,-0.95537021202937,0.109048224223102,0.19838017540209,-2.08888440965027,-0.0439346042274139,0.351914796053375,idle
58.63,-2.96323538422221,0.67095178739655,-0.284961734779101,-1.42897674864863,0.38310132550006,6.60495795472028,-1.43836723748838,0.886625950280806,-1.13018485627203,-3.96351690336682,-3.92060443423442,-0.512441988657764,-0.957397604719952,0.376247056227407,0.309672433557541,-3.40381120672896,-0.114839704777317,0.117789921454091,-0.9534533627298,0.0974396410112908,0.19342855872596,-2.04052299962238,-0.0448398911803436,0.339888301192419,idle
58.635,-2.97997439094917,0.537538518704814,-0.407337968074654,-1.53556779940274,0.608260212648911,6.40842595087074,-1.3728329486486,0.856860514932138,-1.17330024275423,-3.96115816177663,-3.68860283753936,-0.456698419270152,-0.956604326529736,0.418750719113312,0.305471908215393,-3.42176989737575,-0.135050462609117,0.152907111748673,-0.951664920846282,0.0851143682090189,0.18871050220765,-1.99258019643637,-0.0462945091349689,0.329852585365444,idle
58.64,-2.98172255793886,0.391581961418334,-0.530358868155819,-1.62185872057553,0.813706187909029,6.16690662338867,-1.30237300531658,0.813714565608416,-1.22179891731705,-3.93353450136621,-3.44109736122688,-0.398781927965874,-0.955610575959977,0.457563661076538,0.299852356777332,-3.41704291364236,-0.150981201582257,0.193224733157124,-0.950153712422758,0.0726537381591573,0.184224538739391,-1.94530026390714,-0.048160254888019,0.321591774714322,idle
58.645,-2.97031534176653,0.237278636766971,-0.65200798988258,-1.68756437084538,0.999936172622014,5.88585688067121,-1.22882696658422,0.759436924974578,-1.27436068665637,-3.88124484404332,-3.17898435008343,-0.340256791234634,-0.954503403986011,0.491336097752717,0.293090605065021,-3.39038888008121,-0.162281342757049,0.237953346240624,-0.949033000336381,0.0605355142241032,0.179987655839908,-1.89892876659878,-0.0502718350149086,0.314762628712059,idle
58.65,-2.94739667159245,0.0797024841318157,-0.769596800716205,-1.73327815982492,1.16800187728445,5.57101157144615,-1.15440154016339,0.696924953506149,-1.32871600229614,-3.80589963608882,-2.90351025893676,-0.2825350385188,-0.953304806267008,0.518868183070284,0.285526802772743,-3.34345428224337,-0.168701321268742,0.286172823165931,-0.948387257692455,0.0490928409632215,0.176003256654858,-1.85370512955297,-0.0524461277667737,0.30893396236886,idle
58.655,-2.91453535831972,-0.0757044818955474,-0.880246440018852,-1.7603543868672,1.31937343031311,5.22822010371091,-1.08129188411682,0.629411091283973,-1.3823063380678,-3.70998628252363,-2.61627168785305,-0.226787158786134,-0.951971955309985,0.539200449316212,0.277527864717777,-3.27864488779381,-0.170109310754971,0.336855449728702,-0.948276164866182,0.0385016033912858,0.17222517157864,-1.80985485825739,-0.054505604976774,0.303634012620043,idle
58.66,-2.87316269542283,-0.22355941690035,-0.980872459683949,-1.77074898717659,1.45574847545085,4.86332272076015,-1.01155980863558,0.56014462245426,-1.43246890646701,-3.5966664878092,-2.31919799651785,-0.173886691464487,-0.950407511107083,0.55167989728134,0.269457004666608,-3.19893602876421,-0.166498538004829,0.388893454094375,-0.948734874145975,0.0288031160256887,0.168552060598808,-1.76758175539432,-0.0563080274651226,0.298396604666917,idle
58.665,-2.82457823156897,-0.35895372307805,-1.06822234612953,-1.7668507804677,1.57880780714997,4.48205589867012,-0.947028121992956,0.492087096189414,-1.47665910925376,-3.4695422969514,-2.01451559696304,-0.12439228420118,-0.948483029874994,0.55599738721594,0.261655645655647,-3.10765630937331,-0.157984503971307,0.441126649778501,-0.94977249826469,0.0199533583124696,0.164869266751223,-1.72706288988648,-0.0577743135504466,0.292794864009139,idle
58.67,-2.77002759430515,-0.477825045457168,-1.13904128428762,-1.75129318553191,1.6899577594852,4.08999307939435,-0.889186163945978,0.427651382113492,-1.51273726383553,-3.33239215265782,-1.70469685166283,-0.0785624430176783,-0.94607111831643,0.552203191816052,0.254435547803018,-3.00824303962713,-0.144791077042687,0.492370803269746,-0.951371947659705,0.0118759346596503,0.161106621943156,-1.68845308331965,-0.058897492263274,0.286461140647032,idle
58.675,-2.71061845373822,-0.577135015089549,-1.19001905470748,-1.72677108511224,1.79008678878898,3.69250499476761,-0.839224125460655,0.36854637586938,-1.53888960315085,-3.18891259729622,-1.39239236057483,-0.0363979083196448,-0.943072638864464,0.540704396158593,0.248063852788205,-2.90400309927506,-0.127229050866975,0.541449819889289,-0.953493850285567,0.0044980681432609,0.157245193865153,-1.65189393818361,-0.0597361776949892,0.279094792551643,idle
58.68,-2.64723090743455,-0.654933025861679,-1.21789149432199,-1.69585564794645,1.87937553882255,3.29474778316637,-0.798061041728383,0.31566979724446,-1.55358913323669,-3.0424736802904,-1.08034895908032,0.0022964661961961,-0.939432953839386,0.522246117082299,0.242745858500095,-2.79788567058768,-0.105671462053123,0.587234398390056,-0.956076748357201,-0.0022436378564633,0.153293857036238,-1.6175143449908,-0.0604084950337492,0.270466654551734,idle
58.685,-2.58080936181104,-0.710499458926826,-1.22020456604434,-1.66075641046263,1.95721066276081,2.90170492342768,-0.766180820418728,0.269070183852922,-1.55624641026889,-2.89585536395145,-0.771324063160215,0.0378416273016849,-0.935155624617752,0.497855540372675,0.238627602799651,-2.69223273476689,-0.080525916912998,0.628686528449194,-0.959034476620774,-0.0084076420136931,0.149308038553303,-1.58542419675896,-0.0610805912535406,0.260430610986457,idle
58.69,-2.51250711146007,-0.744318647265576,-1.19562506548487,-1.62311223915812,2.02217910941559,2.51821095310258,-0.743618016438238,0.228122814625766,-1.54734879386078,-2.75104514954573,-0.468000089851653,0.0706174353813115,-0.93032022822648,0.468731672802563,0.23581733776552,-2.58858845411127,-0.0522085691231167,0.664902798609585,-0.962267480373887,-0.0140314724079872,0.145438664314738,-1.55571980486734,-0.0619316949350736,0.248934671853846,idle
58.695,-2.4435030108779,-0.757816454080415,-1.14366698435844,-1.58392204011536,2.07211155587813,2.14888012389926,-0.730123446086077,0.191840494726615,-1.52789614090732,-2.6091987662211,-0.172900607748097,0.101010022961788,-0.92509598280575,0.436109325147913,0.234405537731718,-2.48767096574299,-0.0211274891161002,0.695146593089231,-0.965693419228167,-0.0190840825577996,0.141917351120565,-1.5285014469971,-0.0631037228684029,0.236017653819487,idle
58.7,-2.3748636251546,-0.753085724028511,-1.06469567242314,-1.5435930826069,2.10420646774955,1.79797363418461,-0.725256421944265,0.159133164967803,-1.49909198256168,-2.47074278949922,0.111680635013849,0.129377695198308,-0.919739781361682,0.401146003841018,0.234470965499165,-2.3894858393812,0.0123210961324622,0.718859661954923,-0.969275769475427,-0.0234282430773578,0.138974355921638,-1.50387644946533,-0.0646752174748689,0.22178413995983,idle
58.705,-2.30742704806038,-0.732647236568289,-0.960144935827814,-1.50202519490583,2.1152676831207,1.46926410792134,-0.728434823376355,0.128938940478259,-1.4622678553411,-2.33553282189585,0.383730845318006,0.156031758138316,-0.914576388423829,0.364871467211436,0.236057811273693,-2.29349355907498,0.0477454828200206,0.735659831446412,-0.973028491156515,-0.0268857103471651,0.136794914360198,-1.48194001127187,-0.0666637521667775,0.206377025635638,idle
58.71,-2.24166580700325,-0.699208697328417,-0.832686206081701,-1.45863167662294,2.10207125125392,1.16595551825,-0.738984296166393,0.100276996744825,-1.41883056896065,-2.20296051416159,0.641547776651108,0.181226648851798,-0.909968798370731,0.328186570870294,0.239141301413136,-2.19872240086137,0.0847469219961505,0.745341959227946,-0.977004917844146,-0.0293538156655336,0.13552408821822,-1.46275416701013,-0.0690272483112185,0.189991898719273,idle
58.715,-2.17767194677508,-0.655460112709873,-0.686126705345483,-1.41230402711117,2.06181573034126,0.890669946210244,-0.756177769999866,0.0723620572850784,-1.37014446288928,-2.07200577612313,0.883744328235026,0.205159745001792,-0.906297472348872,0.291827707055537,0.243661747327372,-2.10382373297183,0.122910129004101,0.747876734554254,-0.981282817223289,-0.0307796072510427,0.135281540629683,-1.44633726573541,-0.0716637170343322,0.172916113551527,idle
58.72,-2.11530979630963,-0.603958547640336,-0.525047912062703,-1.36151875696194,1.99251206137538,0.645387982337988,-0.779262749146102,0.0447881232899528,-1.31737650283475,-1.94139917521742,1.10923619634857,0.227987116776331,-0.903955270267359,0.256275220487671,0.249616599294201,-2.0072373068731,0.161797756877597,0.743395945506673,-0.985950970673253,-0.030999859366543,0.136188474307389,-1.43265914813088,-0.074400656329268,0.155512008688063,idle
58.725,-2.05438238593434,-0.547093180859722,-0.354601408445183,-1.30463904903892,1.89325263855171,0.43131424635864,-0.807437226340519,0.0175868483853913,-1.26155791546525,-1.80992629573269,1.31721984460616,0.249848112401887,-0.903338900504125,0.221696252545859,0.257084699459189,-1.90749895234838,0.200948226220236,0.732162999427891,-0.991116900164068,-0.02964330302265,0.138347305180432,-1.42163000443637,-0.0769756791889226,0.138133515230423,idle
58.73,-1.99462432169151,-0.48704868779226,-0.180366292241978,-1.24023107447195,1.76441982634727,0.248793212589027,-0.83983205871365,-0.0089063165374605,-1.20368485474155,-1.67670713785716,1.50713379831109,0.27088037734524,-0.904819805457082,0.187975236155335,0.266166726344788,-1.80352281612725,0.239875547796612,0.714524958416514,-0.996917155262566,-0.0261936208687434,0.141784160418844,-1.41307670330354,-0.079052810920366,0.121037568889579,idle
58.735,-1.93549079438127,-0.425670640665256,-0.0078913909933029,-1.16727156906034,1.60783720926041,0.0973439708940074,-0.875601845372416,-0.0342648495721618,-1.14450502095724,-1.54134307004444,1.678609053088,0.291219421043766,-0.908697861911882,0.154817127522082,0.276911376009432,-1.69474886342751,0.278073224787275,0.69086690696325,-1.00348697056588,-0.0201939037343752,0.146457185411688,-1.40672119174691,-0.0802563177233802,0.10434065885833,idle
58.74,-1.87606926038871,-0.364346281078567,0.157655841847299,-1.08517492947993,1.42684333651891,-0.0241622675834821,-0.913964373633763,-0.0581195769505735,-1.08446314859368,-1.40388009358296,1.83142241411564,0.310989323790205,-0.915166256008455,0.121863358256059,0.289250242432479,-1.58110292303107,0.315026208443985,0.661597343692967,-1.01092184957368,-0.0114241488465796,0.152296238406003,-1.40217932934065,-0.0801763588781828,0.0880516978024057,idle
58.745,-1.81528676068977,-0.304055041993543,0.311687566203096,-0.993730889972311,1.22624320120697,-0.11726486193649,-0.954124510112192,-0.0801369708205543,-1.02390191321369,-1.26468395957321,1.96545460248119,0.330293451122087,-0.924314613601414,0.0887305399009093,0.302985018012258,-1.46286742397256,0.350227976203952,0.627145293708634,-1.01927691181846,0.0001561293505932,0.159197448780286,-1.39896896273389,-0.0783727060591492,0.0721361223016629,idle
58.75,-1.75214669710159,-0.245516739720885,0.450574501433348,-0.893164393905186,1.01205332545537,-0.183787739567088,-0.995248282132285,-0.0999621407986225,-0.96308942431883,-1.12442121031169,2.08065794814374,0.349208027752471,-0.936144520587556,0.0550114739808502,0.317841032776935,-1.34066088785842,0.383198097723182,0.587940978355747,-1.02857566228888,0.0145870552863692,0.166991391253916,-1.39650663465929,-0.0744015123733192,0.0565205694612115,idle
58.755,-1.6858320370043,-0.189321499194932,0.571860305191165,-0.784240524320603,0.791086085798839,-0.225793680916217,-1.03648177410135,-0.11730492231346,-0.902247126076447,-0.984086078725779,2.17704144396817,0.367775797094775,-0.950561434843347,0.0203466305957407,0.333515584031884,-1.21546597660062,0.413501191864743,0.544389795729721,-1.03880130993307,0.0319417861519522,0.175426830180753,-1.3941018762435,-0.0678552658228511,0.04104963129311,idle
58.76,-1.61574203218097,-0.136016240785869,0.674181942069021,-0.668226319527347,0.570495510493432,-0.245509962530267,-1.07696300060767,-0.132072503421372,-0.841679340316452,-0.844915648422714,2.25467277068419,0.386001195371328,-0.967356019567123,-0.0154654806989854,0.349696404637853,-1.08854620454587,0.440766259724726,0.496856695489899,-1.04988102858334,0.0522208871100771,0.184193615165266,-1.39097335646028,-0.0584007226738651,0.0254681009338169,idle
58.765,-1.54154398780341,-0.0861454306016813,0.757130056610625,-0.546716498265785,0.357342951764878,-0.245245968667316,-1.11583881182157,-0.144396201095174,-0.781840379367309,-0.708203210509139,2.31369301822122,0.403854135394035,-0.986195714411004,-0.0524064638520894,0.366081954643978,-0.961259841517496,0.464704073577798,0.445663769993415,-1.06167008572814,0.0752739661325277,0.192946856272579,-1.38629612884086,-0.0457990773313038,0.0094426263559547,idle
58.77,-1.46325648760545,-0.0402408250408515,0.821133593125471,-0.421430676877218,0.158198447535269,-0.227344511407856,-1.15228711591962,-0.15455156620842,-0.723311555509576,-0.575111028275798,2.35434240064403,0.42128442033843,-1.00663167964854,-0.0902348638799888,0.382387220813537,-0.834871696619159,0.485120591335443,0.39109882561324,-1.07394737979335,0.100776400821447,0.201300009973355,-1.37926212481057,-0.0299130193452252,-0.0074068258092314,idle
58.775,-1.38131469443549,0.0012234591292375,0.867352400941592,-0.294072784603368,-0.0212158630449406,-0.194162202964178,-1.18555268327886,-0.162857419119911,-0.666725606920852,-0.446567270162278,2.3769982271339,0.438234384715235,-1.02812144819899,-0.128494794793305,0.398310378382986,-0.710448305734557,0.501918828728982,0.333433355508206,-1.08643605070335,0.128201365003943,0.208820851293138,-1.3691246556528,-0.010715521494305,-0.0254694206934204,idle
58.78,-1.29656985882919,0.0378790310311899,0.897534306013388,-0.166252983043687,-0.176309404705666,-0.14804740075307,-1.21499042561099,-0.169610191955144,-0.612680609622444,-0.323243108253131,2.38222030139424,0.454640574699682,-1.05005814106523,-0.166518613795725,0.413503909141357,-0.588833648918417,0.515086406158147,0.272945549330696,-1.09883668879065,0.156817274266857,0.215030737202398,-1.35522207892738,0.0116916866394908,-0.0450902354111364,idle
58.785,-1.21025229110324,0.0694799275741126,0.913877286982295,-0.0394473522132725,-0.303799887191805,-0.0913104407763333,-1.2401056216395,-0.175029266292701,-0.561654559338961,-0.205578948719173,2.37079071668457,0.470429745365954,-1.07180563527065,-0.203483356916396,0.427588341828734,-0.470674022935212,0.524678062335526,0.209940770106466,-1.11084572854913,0.185743547864138,0.219434678185394,-1.33699787096607,0.0370519269720414,-0.0665240363501365,idle
58.79,-1.12392906132173,0.095891040584301,0.918929390324153,0.0849724026131999,-0.401797911880199,-0.0262209956249801,-1.26058432871641,-0.179194101745535,-0.513940314696787,-0.093878703662172,2.34373629838216,0.485512024909169,-1.09274301871701,-0.238545780047318,0.440173074530599,-0.356508895726802,0.530802839056885,0.144771556031312,-1.12215185852616,0.213999685227372,0.221635515240874,-1.31402851863477,0.0649610467012231,-0.0899103478337324,idle
58.795,-1.03939337022447,0.117103393885726,0.915441383466312,0.205646220427774,-0.469819157489895,0.0449684523901055,-1.27629989215115,-0.182027024707251,-0.469631171236999,0.0115416181013905,2.30232871222578,0.499769567213793,-1.11229697847008,-0.270946958326294,0.450852091583412,-0.246912779747204,0.533618558864101,0.0778619270912731,-1.1324386649619,0.240535059093211,0.221397878951956,-1.28605532684344,0.0949358105741545,-0.115251657607847,idle
58.8,-0.958411702197296,0.133319856072574,0.906318767182941,0.321170896938551,-0.508701687124918,0.120032687798484,-1.28737827627885,-0.183325263304218,-0.42848155527401,0.110246638558486,2.24806479292198,0.513046384027694,-1.12995190639387,-0.300009357279252,0.459196818460267,-0.14259455357623,0.533330005425221,0.0097237615348935,-1.14141568407808,0.264289686216978,0.218556973804924,-1.25300398766269,0.126474171764293,-0.142393498885496,idle
58.805,-0.882608745242562,0.144915224093145,0.894370342333426,0.430114972874027,-0.520434352166391,0.196814770871209,-1.29413153973024,-0.182793541226413,-0.390025992288946,0.201653224629953,2.18263338195724,0.52514670258132,-1.14526424250841,-0.325118983975407,0.46476688304258,-0.0444183788454732,0.530188280944903,-0.0590444190530971,-1.14885655248868,0.2842557993638,0.212952647926205,-1.21498560684924,0.15905996667168,-0.171020193724149,idle
58.81,-0.813614940827244,0.152218070005831,0.881627396820754,0.531029816314609,-0.507950775613484,0.273228571423323,-1.29671837174021,-0.180088697903497,-0.354191912215655,0.285022954668568,2.10787159834328,0.535841079789985,-1.15788804434211,-0.345767192836012,0.467137606820044,0.0465968902002249,0.524493215602574,-0.127768477483419,-1.15461910240753,0.299519887834048,0.204476581534238,-1.17229285115379,0.192165579910692,-0.200659997107263,idle
58.815,-0.752907532713936,0.155555246822856,0.869396083256347,0.622459408745838,-0.474904955254018,0.347242449972076,-1.29517231613618,-0.174854352204994,-0.321199612034662,0.35947184505186,2.0257091232557,0.544879412800945,-1.16758951699078,-0.361602182383531,0.465944952848367,0.129296567151029,0.516596874044273,-0.195718588934775,-1.15864778287911,0.309342971527886,0.193090686682619,-1.12539640472264,0.225272795649215,-0.230697482861025,idle
58.82,-0.701442815169241,0.155468578258459,0.858835690157888,0.702993923099772,-0.425421955639315,0.416903888552199,-1.28973027417415,-0.166741602498011,-0.290966991483003,0.424027859101644,1.93810312137968,0.552011552289233,-1.17424432033535,-0.372445956082656,0.460928365110886,0.202456414651943,0.50690259975059,-0.262142670910163,-1.16096491779332,0.313243594021822,0.17879249953226,-1.07493164476319,0.257879961725721,-0.260406401697268,idle
58.825,-0.659626198800183,0.152691016142389,0.850873975563027,0.771343687698979,-0.363847219439486,0.48039103402571,-1.28079824733435,-0.155464720857325,-0.263198992746613,0.477715057760754,1.84697559430834,0.557009850270762,-1.17782236757917,-0.378272533329721,0.451943477524427,0.26487413741663,0.495856444243739,-0.326301743352907,-1.16165534959462,0.310992228069019,0.161599826131301,-1.02167540238205,0.289498354797172,-0.288988094170076,idle
58.83,-0.627389813629438,0.148065057130755,0.845968038854496,0.826414710685105,-0.294513612337188,0.536074621106095,-1.26880429535278,-0.140868902325354,-0.237644601179355,0.51964751856694,1.75416281184702,0.559688462368454,-1.17836355687429,-0.379160824999355,0.438961160316642,0.315468726593148,0.48392988902496,-0.387493781452936,-1.16084741820025,0.302573627317619,0.141535480866727,-0.96651954214048,0.319648867976206,-0.315590464149846,idle
58.835,-0.604208925053078,0.142521852127918,0.844153738085747,0.867400964906777,-0.22153106375203,0.58260704875257,-1.25417912920959,-0.122961346671109,-0.21410867609465,0.549140009029167,1.66137402153874,0.559920603362054,-1.17596565281062,-0.375273380526206,0.422082848985869,0.353394425220638,0.471595016294916,-0.44507027915786,-1.15869464714458,0.288222027866777,0.118623993284293,-0.910436511723895,0.347846609198293,-0.339321081807751,idle
58.84,-0.589212023399939,0.136978781456724,0.845200175986807,0.893850893476905,-0.148623616360532,0.618997205492316,-1.23735710899168,-0.101868901731152,-0.192417175188843,0.565792301978545,1.57015213321955,0.557652972235831,-1.17081208679343,-0.366904120184101,0.401570934072695,0.378126590493403,0.459300965185602,-0.498456688647011,-1.15536564472902,0.26851760075245,0.0929974999897704,-0.854442914064906,0.373588629578096,-0.35928608767092,idle
58.845,-0.581348629020588,0.13218745357886,0.848745274672391,0.905622590406369,-0.0790394774969003,0.644583245008705,-1.21878670610394,-0.0777919434940155,-0.172399731381261,0.569467997946723,1.48183622576663,0.552911281751559,-1.16321047903586,-0.354539494767486,0.377872418142019,0.389440650277088,0.447465260879032,-0.547181921028469,-1.1510397599033,0.244438679993617,0.0650466607928874,-0.799585258033759,0.396392460648348,-0.374672981432665,idle
58.85,-0.579457281748933,0.128693563113713,0.854266137791132,0.902791167752088,-0.0154955562218142,0.658959806591842,-1.19892881200673,-0.0510894249095034,-0.153955503705199,0.560221632976955,1.39753344367117,0.545795023568899,-1.15356506515892,-0.338816382698332,0.351601416840723,0.387336605265729,0.436472044092004,-0.590910313250917,-1.14589765818682,0.217255156327974,0.0353868423846199,-0.746934905175434,0.415864700931572,-0.384845883775392,idle
58.855,-0.58226150634006,0.126892532903047,0.861042157347513,0.885676104080797,0.0398990198710136,0.66201740863162,-1.17823455663912,-0.0223819107759432,-0.137108263588388,0.538326710947897,1.31810738865469,0.536467879916344,-1.14229261814018,-0.320389957730174,0.323464866912269,0.372060700450689,0.426651818308087,-0.629458388399051,-1.14010581439013,0.188316174078354,0.0046542943614246,-0.697552407840115,0.431714468342362,-0.389382589269925,idle
58.86,-0.588478091931066,0.126999224310145,0.868326150382297,0.854924491943362,0.0856813751427203,0.654022998438547,-1.15712423308708,0.0075293084804848,-0.121946131826026,0.504357028650526,1.24418574185916,0.525145357373612,-1.1297804612173,-0.299864047480773,0.294178110629792,0.344178666554507,0.41825098868962,-0.662788404269889,-1.13380303251848,0.158931028349281,-0.0265943550485156,-0.652433479850808,0.443710867425913,-0.388055208625784,idle
58.865,-0.596952201781347,0.128995299191852,0.875506718144018,0.811473705364926,0.120968384822783,0.635571245141909,-1.13599406929142,0.0377844097518056,-0.108558560945304,0.45916408834326,1.17618058192616,0.512075228111802,-1.11640507069719,-0.277822126478636,0.264442153269355,0.304545963575646,0.411420187349805,-0.690991588178336,-1.12709307297275,0.130367142030969,-0.0578030411476063,-0.612473484421738,0.451661984600767,-0.380821533828679,idle
58.87,-0.606636306618032,0.132721593002187,0.882043470289324,0.756492856711057,0.14538447178906,0.607515673266301,-1.11524189563019,0.0674449178205262,-0.0970659882974098,0.403826184854272,1.11430406241533,0.497519596972027,-1.10254462636313,-0.254847563008555,0.234973159264803,0.254251846574937,0.406213894199017,-0.714273003015815,-1.12004494861457,0.103821866329199,-0.08833330552927,-0.57844258972554,0.455433598544925,-0.367829571607982,idle
58.875,-0.616555450114778,0.137977523081486,0.887424710485993,0.691429304678546,0.159054177482473,0.571004399892442,-1.09526968953275,0.0955052444488822,-0.0876236128072619,0.339679641457307,1.05857522868085,0.481748671292732,-1.0885720864528,-0.231510761691546,0.206489681937866,0.194647997017051,0.402584940582747,-0.732935505813009,-1.11271028955145,0.0803477122752947,-0.117486741097046,-0.55095726986212,0.454971238279071,-0.349399089062973,idle
58.88,-0.625901506330021,0.144472742139558,0.891301000309577,0.618010102879066,0.162559627744473,0.527478745062208,-1.07645458370672,0.121051909064308,-0.0803414971834099,0.268309800879048,1.00883159940912,0.465032780477586,-1.07485882184312,-0.208387378467327,0.17963228025056,0.127337692877837,0.40038731422373,-0.747363291925145,-1.10515766257926,0.0608060116584195,-0.144583424793745,-0.530461248642105,0.450310140877272,-0.325993283403362,idle
58.885,-0.634107454094038,0.151773617635,0.893551530297618,0.538104501458265,0.156821543986467,0.478545816262369,-1.05912831351536,0.143371648020375,-0.0752456839965962,0.191423295896897,0.964749397955466,0.447621699803421,-1.06177542953802,-0.186067607225059,0.154908037555732,0.054045436682374,0.399395019468887,-0.758010493694274,-1.09748986674332,0.0458425663451478,-0.169007201244644,-0.51721898412353,0.441576061778075,-0.298199765194061,idle
58.89,-0.640798730675352,0.159379166927619,0.894182409885852,0.453602880149239,0.142992355683246,0.425848546989058,-1.04358093102191,0.161911909774837,-0.0723268477062271,0.110740606022146,0.925867707399834,0.429729007679796,-1.04966807523361,-0.165097654571397,0.132709307327933,-0.0234921874191345,0.399322001124358,-0.765386159131411,-1.08982463292897,0.0358526756870163,-0.190195967227361,-0.511314285692865,0.428985223969991,-0.266701783974907,idle
58.895,-0.645729474915233,0.1668235527256,0.893248878800646,0.366404009202284,0.122398620758062,0.371017530118375,-1.03006198619201,0.176251584039359,-0.0715698717247904,0.027989018502232,0.891615400536552,0.411534862582518,-1.03883815315005,-0.145926363562439,0.113339248145061,-0.103532568583546,0.399835994326605,-0.77002910314145,-1.08227932159876,0.0309738686747996,-0.207641657049818,-0.512654342394936,0.412848866845546,-0.232231626019766,idle
58.9,-0.648779971588018,0.173693515727602,0.890877100694292,0.278400415535081,0.0964830349655716,0.315633949768741,-1.0187690815093,0.186153215447425,-0.0729241529472763,-0.0551071495650599,0.86133869135384,0.393192800011864,-1.02954473022882,-0.128911062678744,0.0970005743870423,-0.184335144840767,0.400575139131958,-0.772486473023,-1.07498434692676,0.0311170585938594,-0.22093400367472,-0.520974676425188,0.39356913450718,-0.19553338519836,idle
58.905,-0.649956021380943,0.179618700253379,0.887270528219863,0.19140806518677,0.0667295285501046,0.261153134562681,-1.0098412047548,0.191591045306635,-0.0762832624190146,-0.136885773481824,0.834328514230247,0.374831708777951,-1.02200410259565,-0.11432084281459,0.0837905017407054,-0.264219521324428,0.401169886937361,-0.773299886365855,-1.06809213644328,0.0359812582654214,-0.229797256260873,-0.53584249607782,0.371621835063142,-0.157340807625091,idle
58.91,-0.649355948340407,0.184292849187144,0.882672538582437,0.107109160555723,0.0346032793269922,0.208837184982629,-1.00335956728856,0.192724317878686,-0.0814899285221309,-0.215792451079337,0.809849059132991,0.356560836408971,-1.01637945352964,-0.102319180291818,0.0737185552072117,-0.341609436628014,0.401263458129245,-0.772988896544871,-1.06176934222691,0.0450634632797294,-0.234100365778362,-0.55666483373923,0.347538029917041,-0.118351960938762,idle
58.915,-0.647137857095442,0.187496446568526,0.877340950182031,0.0270134781818601,0.0015083095502604,0.159715663016255,-0.999346748404178,0.189863149072347,-0.0883431746610996,-0.290411881520951,0.787165188173873,0.338476476062225,-1.01277521740266,-0.0929695581982761,0.0667222484297972,-0.415062675692435,0.400529309486469,-0.772035784554492,-1.05618560490682,0.0576994141439737,-0.233850648082369,-0.582701732452341,0.32188324683368,-0.0792076051644487,idle
58.92,-0.643486689874564,0.189118898395796,0.871524512358811,-0.0475761738230276,-0.0312484645493452,0.114569290098152,-0.997765913508617,0.183419717132108,-0.0966177170525502,-0.359499060199657,0.765565373262968,0.320666048385745,-1.01122977812644,-0.0862549520636414,0.0626819246034078,-0.483301620760198,0.398684749404562,-0.770875408763623,-1.05149311730774,0.0730984948762603,-0.229153675439742,-0.613083057986811,0.2952385171593,-0.0404762371025537,idle
58.925,-0.638586906544523,0.18917057583303,0.86544432486279,-0.115565250849143,-0.0624793299548024,0.0739546866466207,-0.998520191943028,0.173868091816678,-0.106076563994597,-0.42198230061904,0.744379994269169,0.303213032037876,-1.01170856129697,-0.0820915401297684,0.0614333171974842,-0.545215522448011,0.395497901367576,-0.769883162553233,-1.04780700297019,0.0903755003273933,-0.220179956200922,-0.646830880035191,0.268195861260473,-0.0026316645267899,idle
58.93,-0.632634110139145,0.187747123066073,0.859315345791884,-0.176068733423885,-0.0911336099949413,0.0382343490654923,-1.00144807064973,0.161753878472854,-0.11645378679712,-0.476968965271152,0.722996308435084,0.286200135697435,-1.01411249617275,-0.0803513109450945,0.0627655517305459,-0.599865806799768,0.390792959849836,-0.769365843332009,-1.04520476147039,0.10863077518608,-0.207191966651078,-0.682883465185795,0.24135371344294,0.0339617575749895,idle
58.935,-0.625847185613032,0.184993096176363,0.85334837115518,-0.228454074585476,-0.116328426692785,0.0075706169830105,-1.00632364448603,0.147685446058264,-0.127457062012838,-0.523792127805863,0.700870536645981,0.269706184902076,-1.01828784496392,-0.0808772277263046,0.0664256735777987,-0.646533898520172,0.384458165594083,-0.769564457932706,-1.0437265604362,0.1270403646005,-0.190579648247879,-0.72011838670867,0.215295486380447,0.0690348414811461,idle
58.94,-0.618427071830561,0.181116276115385,0.847673914541074,-0.272356012140061,-0.137363126911122,-0.0180628333659292,-1.01287182750725,0.132252526297978,-0.138815221225215,-0.562031993332005,0.677536701466748,0.25380444044605,-1.02402071564466,-0.0834599222417288,0.0721449449483471,-0.684744549741289,0.37644858761236,-0.770661298233165,-1.04336279265101,0.144886778418345,-0.170853926330875,-0.757382646003597,0.190562437544092,0.102392217837544,idle
58.945,-0.610526443365532,0.17639160113365,0.842311169363531,-0.307610704797285,-0.15368753515184,-0.0388146847180387,-1.02078636431688,0.115971034845248,-0.150296820507802,-0.591460503115122,0.652612697997972,0.238568437618449,-1.03103612963558,-0.0878250527409206,0.079653773359721,-0.714211818630189,0.366778192771781,-0.7727813616825,-1.04404198675455,0.161559474961565,-0.148608143064266,-0.7935356252205,0.167631021292568,0.133908814094091,idle
58.95,-0.602296681980017,0.171120139392974,0.837274855704025,-0.334207918254104,-0.164879090137489,-0.0548991924258294,-1.02973323446453,0.099326732873146,-0.161669382120649,-0.61200329781379,0.625804969370195,0.224072913310812,-1.03901777320295,-0.0936934657648537,0.0886664354543422,-0.73480232130166,0.35551146327859,-0.775990003405543,-1.0456204116632,0.176578150351869,-0.124441731600072,-0.827488670173478,0.146904347168691,0.163526958402793,idle
58.955,-0.593938340685237,0.165597519523528,0.832653434847762,-0.352329964291217,-0.170678496298603,-0.0665861209233788,-1.03934806434847,0.0828225595230187,-0.172682508537035,-0.623789049492771,0.596910821568496,0.210382158807728,-1.04762978956461,-0.100842021337562,0.0988709051670148,-0.746586086214612,0.342762761723132,-0.780291509105783,-1.04787714595484,0.189632547904231,-0.0988963032890423,-0.85822389289693,0.128730547970684,0.191236042108716,idle
58.96,-0.585686141909433,0.160103451526259,0.828538874037932,-0.362384431677631,-0.171025889822605,-0.0742004141102811,-1.04924703835367,0.0669475256713946,-0.183111123744151,-0.627192959226239,0.565817130897095,0.197541340324686,-1.05652584556805,-0.109074373957796,0.10994587255626,-0.749881464645477,0.328696204671581,-0.78563324374237,-1.05053023138384,0.200607624664429,-0.0724776267676869,-0.884812350136367,0.113424271697534,0.217044085282456,idle
58.965,-0.577774412812003,0.154885525959048,0.824940974183557,-0.364964028390366,-0.16604533466898,-0.0781104767207524,-1.05904967382244,0.0521228253363195,-0.192792461861762,-0.622801594649991,0.532497878459129,0.185580007462765,-1.06535490481268,-0.118157718802353,0.121580401065586,-0.745221594475835,0.31351860719627,-0.791915802534342,-1.05326498978734,0.209567575862572,-0.0457025814240165,-0.90645032028093,0.101262985989058,0.240954912086598,idle
58.97,-0.570425218146935,0.150141998695775,0.821783087998683,-0.360781597154928,-0.156005162752898,-0.0787153456728485,-1.06839982333398,0.0386847470516747,-0.20162198377982,-0.611346947073637,0.49701263623407,0.174518571220427,-1.07377246396188,-0.127801080622464,0.133480470320823,-0.733290298493395,0.297468396730688,-0.799002000364522,-1.05575729717288,0.216706039372635,-0.0190984279306087,-0.922493166031232,0.0924720340715217,0.262955264364873,idle
58.975,-0.563844583636554,0.146016449860484,0.818938235502108,-0.35061784177243,-0.141280086304065,-0.0764386700518721,-1.07697790075874,0.0268880481713664,-0.209537190840701,-0.593650235126324,0.459504740557505,0.164372541958342,-1.08145370392553,-0.137667468321119,0.145366770639136,-0.714867437383557,0.280804899160126,-0.806722266311951,-1.05769662117872,0.222286934374947,0.0068154003637711,-0.932470423837849,0.0872129018452618,0.283008522711611,idle
58.98,-0.558213427515288,0.142608537065111,0.816278330978627,-0.335281486509594,-0.122324387811711,-0.0717210412885309,-1.08450421031436,0.0169086474633218,-0.216505492570548,-0.570576435728818,0.420196569091615,0.155153565835447,-1.08810352361761,-0.147400403072217,0.156963268872865,-0.69078514616625,0.263797034653418,-0.814881222831021,-1.0588130036261,0.226580579533453,0.0315392218599955,-0.936086082823549,0.085570398913932,0.30105712065045,idle
58.985,-0.55367450090602,0.139986574400041,0.813709871714329,-0.315582735213265,-0.0996653492149447,-0.0650000884964367,-1.09074368564129,0.0088472915478244,-0.22251082324992,-0.543002564382724,0.379380749275324,0.146865413715742,-1.09346561327128,-0.156640843965183,0.167992935038665,-0.661898353174892,0.246710096806989,-0.823267218129603,-1.05889640680512,0.22982097847552,0.0545993575311487,-0.933208036854969,0.0875381146089657,0.317037617668173,idle
58.99,-0.550318905500668,0.138181498446397,0.811164368468698,-0.292310324058681,-0.0738964825798559,-0.0566923871658186,-1.09552020943902,0.002731728017425,-0.227541364831991,-0.511789233194129,0.337409460468207,0.139500488613259,-1.09733316334358,-0.165014967338999,0.178199069685829,-0.629057894236141,0.229793859809172,-0.831661091574796,-1.05780098757271,0.232209651583601,0.0755413075582584,-0.923853109391665,0.0930046807454978,0.330895794364473,idle
58.995,-0.548174730519634,0.13717568176897,0.808573317142724,-0.266201436158983,-0.0456488987957844,-0.0471910695747003,-1.09872909244307,-0.0014859341176825,-0.23158329956439,-0.477742397380116,0.294684259792848,0.133042016207113,-1.09955617803798,-0.172121587017317,0.187371603607137,-0.593072219447797,0.213274596496554,-0.83984107854385,-1.05544170858439,0.233931392282372,0.0939217614817875,-0.908173107191307,0.101742223695559,0.342590460917954,idle
59.0,-0.547204483351905,0.136901451829853,0.805871855542275,-0.23791058470972,-0.0155531727717502,-0.0368662256936135,-1.10033760681027,-0.0039250139758613,-0.234615075190765,-0.441573262955739,0.251645503923316,0.127467914341912,-1.10004452829923,-0.177550391304503,0.19535577424659,-0.55466634651084,0.197349084612414,-0.847584926702892,-1.05179054160123,0.235154126567927,0.109322047836556,-0.886439753743294,0.113399155735762,0.3520935517308,idle
59.005,-0.547322664765777,0.13723372894022,0.803027677029398,-0.20799464903905,0.0157889243259275,-0.0260671138047299,-1.1003804500035,-0.0047500887158596,-0.236597517219264,-0.403875814972749,0.208759849047539,0.122752093601217,-1.09877750382876,-0.180928412828931,0.202056626092436,-0.514458034102851,0.182180490680861,-0.854671415104619,-1.04687177181648,0.236040486443799,0.121399133035479,-0.859029980353799,0.12750432140875,0.359390681042525,idle
59.01,-0.548417570136326,0.137987687033375,0.800054423398556,-0.17692781482846,0.0478193960064181,-0.0151463024854746,-1.09895280226769,-0.0041424606463641,-0.237475703888352,-0.36513641544292,0.166503844910385,0.118864495555153,-1.09581672771672,-0.181978086304561,0.207451450930077,-0.472965411948773,0.167899784788248,-0.86088608290572,-1.04075790013584,0.236771993466695,0.129956094308488,-0.826419663213172,0.143493932036444,0.364471171728107,idle
59.015,-0.550348610824695,0.138957419525677,0.796990276363858,-0.145127291099656,0.0800360753634188,-0.0044846665351181,-1.09619128871035,-0.0023069153947856,-0.237203826559174,-0.325759436092877,0.125342102409864,0.115771716211844,-1.09129067135103,-0.180542020971471,0.211581045946602,-0.430630520230456,0.154610484104248,-0.866035471996678,-1.03356666508413,0.237517502534572,0.134952114166354,-0.78918150600031,0.160754532188247,0.367309649554841,idle
59.02,-0.552941529083441,0.139968168631988,0.79388974758681,-0.112955245129824,0.112000829446929,0.0055321437942267,-1.09224483881114,0.0005124182487726,-0.235759627093038,-0.286073934517785,0.0857103087748043,0.113434962746417,-1.08534591001089,-0.17654489555207,0.214498895876944,-0.387824921486203,0.142387176753462,-0.869956604806106,-1.02545086552884,0.238339368866826,0.136430008569147,-0.747966707945935,0.178649958323345,0.367872115245452,idle
59.025,-0.556016457706132,0.14088147292646,0.790853795853129,-0.0807134185868837,0.14332532070417,0.0145625403699656,-1.08725700395532,0.0040649003731087,-0.233124078051966,-0.246331694085519,0.0480140219709414,0.11180255533913,-1.07812034931657,-0.169958160693649,0.216232798333933,-0.344847307787977,0.131268259475436,-0.872506470991799,-1.01657962544622,0.239163335914246,0.13448047886017,-0.703468214500069,0.196526174642277,0.366155560983706,idle
59.03,-0.55942142723596,0.141569055691141,0.788033346349483,-0.0486679309689753,0.17364176141828,0.0223157752792367,-1.08136739210579,0.0081456075933707,-0.229268243810759,-0.206733836400795,0.0126315811143522,0.110803560917398,-1.06976202489215,-0.160823254346877,0.216805858088549,-0.301948550155044,0.121255521696047,-0.873547024973074,-1.007124309092,0.23985987553638,0.129293068338524,-0.656389112428903,0.213728460340351,0.36221470273077,idle
59.035,-0.563032554039624,0.141913917174885,0.785580223614568,-0.0170836214532042,0.202590500225693,0.0285237242738089,-1.07471304580334,0.012602700677111,-0.224176091362431,-0.167469017555132,-0.0200922093483205,0.11034937141514,-1.06044512447954,-0.149284836247135,0.216270507787595,-0.259367175558966,0.112322482496949,-0.872944727490508,-0.997253467636619,0.240319895832822,0.121194263764935,-0.607424932213968,0.22963803276874,0.356153530050208,idle
59.04,-0.566738001386703,0.141846096470093,0.78361449601776,0.0137631973893979,0.229826405994357,0.0329319259606244,-1.06741993657835,0.0173167542684081,-0.217869120009316,-0.128733503457356,-0.0498570697491489,0.110338837252361,-1.05036128554383,-0.135603436201927,0.214714172435911,-0.217347208482746,0.104421953857903,-0.870579777211202,-0.98712686622248,0.240470473488414,0.110644389862436,-0.557250259780061,0.24370465091819,0.348109394956865,idle
59.045,-0.570438747755572,0.141373314652617,0.78223565419049,0.0435777100722392,0.255019275513198,0.0353230895543942,-1.05959474898882,0.0221951254764487,-0.210411064211816,-0.0907520964242614,-0.076418272420897,0.110660731670886,-1.03970764668928,-0.120159386341172,0.212253403906137,-0.176158047622267,0.0974906958939155,-0.866359438379189,-0.976885683906651,0.240275871998475,0.0982297921979622,-0.506507442959335,0.255474597196643,0.338239444961569,idle
59.05,-0.574061779165418,0.140571124901752,0.781523796588465,0.0720332488183214,0.277842439152429,0.0355470735130766,-1.05132035539261,0.0271744252346736,-0.201908553272043,-0.0538082054774004,-0.099595325849254,0.111194877689923,-1.02867059168828,-0.103417320442536,0.209016744920709,-0.136124073091907,0.0914539686014525,-0.860231446751677,-0.966646886461054,0.239714046267509,0.0846132004884142,-0.455795462116805,0.264616937202408,0.326705236191484,idle
59.055,-0.577559626101877,0.139544635670731,0.781508484354475,0.0987727312148986,0.297966091429853,0.0335327923795965,-1.04265121702052,0.0322095861219991,-0.192515498221715,-0.0182478421861493,-0.119271442873515,0.111815399739343,-1.01739920909721,-0.0858434163644972,0.205110239062257,-0.0976281161784846,0.086228098998889,-0.852185561773812,-0.956505335713081,0.238715593386723,0.0704323987064535,-0.405650103659126,0.270929414071173,0.313673174820623,idle
59.06,-0.580894612459716,0.138406363700525,0.78215748641528,0.123439627425086,0.315063548079744,0.0292858998345335,-1.03361281563555,0.0372599046942597,-0.182426521854075,0.0155608977611046,-0.135383876525698,0.112396302360266,-1.00599236936297,-0.0678531420227578,0.200601502959127,-0.0610702427127525,0.0817193637087941,-0.842241581222044,-0.946533934345282,0.237145858142144,0.0562382239056305,-0.356516986847121,0.274316603456218,0.299338348512391,idle
59.065,-0.58403340939299,0.137283511149645,0.783425356524808,0.145708510181842,0.328815596727571,0.02288744069704,-1.02421111461587,0.0422978703454542,-0.171847489843282,0.0472672199771979,-0.147916348073391,0.112816480697032,-0.994516746050125,-0.0498469976210725,0.195548423786035,-0.0268277849974026,0.0778237597638636,-0.830440247510594,-0.936772055507292,0.234889415627796,0.0425310716661063,-0.308736501720959,0.274767190147672,0.283939811818045,idle
59.07,-0.586948047048083,0.136328962717173,0.785310444625092,0.165275332184289,0.338897551661994,0.0144918489774016,-1.01444940193288,0.0473250898134633,-0.160960642117139,0.0765228502141231,-0.156901035544074,0.112962025691618,-0.98302846823968,-0.032265321013649,0.190034635374206,0.0047299727947998,0.0744325123286351,-0.816849965578177,-0.927213279637797,0.231941109725547,0.0298128796689573,-0.262550063461899,0.272356869504268,0.267736356516913,idle
59.075,-0.589624229746205,0.135696780022511,0.787798765589005,0.181835633544297,0.344964463732175,0.0043222928675993,-1.00431330424271,0.0523491883185655,-0.149966186709797,0.102951319870496,-0.162423191392481,0.112728306724716,-0.971563884534466,-0.0155629611585258,0.184164223880958,0.0332107394577011,0.0714391863527647,-0.801579135949218,-0.917809867441071,0.228382014947886,0.0185457853673866,-0.218110771837346,0.267257963103523,0.250967676475141,idle
59.08,-0.592064621564425,0.135495046641552,0.790771864028551,0.195107207747863,0.346658872582272,-0.0073315896304986,-0.993744833565218,0.0573454544358978,-0.139142357747646,0.126175144852818,-0.164619261343135,0.112024714910345,-0.960119859671393,-0.0001465920689831,0.178037721335954,0.0582261031645834,0.0687415522079224,-0.784777369264482,-0.908486682452986,0.224307181549794,0.0090710523660814,-0.175487772562487,0.259723004290201,0.233845871848148,idle
59.085,-0.594269588454061,0.135763250644355,0.794059090451891,0.204869382296387,0.343631315087806,-0.0201248713657065,-0.982674305103211,0.062271569915788,-0.128779275348043,0.145868064944877,-0.163672588032426,0.110779512346469,-0.948666175723582,0.013618289821327,0.171762629838247,0.0794437073354537,0.0662414142730671,-0.766630332007561,-0.899143726299148,0.21984409673857,0.0016203188364153,-0.134672609967441,0.250055558594267,0.216562031537905,idle
59.09,-0.596250907254614,0.136459927191473,0.797520346446919,0.21095218611259,0.335553432321552,-0.0337003352020976,-0.971056764945159,0.0671128775248964,-0.119103871466592,0.161750378635523,-0.159813678428979,0.108942500142602,-0.937175291785832,0.0253647384382401,0.165482879372414,0.0965829148958738,0.0638505404486338,-0.747358908431636,-0.889649711422096,0.215215071224728,-0.0036027000292445,-0.0955883622617072,0.238607172543533,0.199264170020353,idle
59.095,-0.598056140586238,0.137463214262416,0.801050255687078,0.213194355518203,0.322123918010097,-0.0477547932694972,-0.958861998563374,0.0718831855636147,-0.110300798247447,0.173549804848651,-0.153319699042981,0.106487580618385,-0.925625245543139,0.0347390319876107,0.159363097094687,0.109376110994683,0.0615004619875414,-0.727218029546981,-0.879857836146609,0.210708410435611,-0.0064252360941653,-0.0581015124214208,0.225796920397908,0.18202086464055,idle
59.1,-0.599740530045129,0.138612856831219,0.804570208052225,0.211431974704417,0.30306116525575,-0.0620751184176287,-0.946054167862985,0.0765788698226714,-0.102555846001271,0.180997849027082,-0.144509369863925,0.103412448829535,-0.913983492452758,0.0414354049897669,0.153535954496143,0.117563557023149,0.0591441489648702,-0.706498699443643,-0.869652679384639,0.206582342690898,-0.0068154789287454,-0.0220461915259756,0.212099419417486,0.164815485315153,idle
59.105,-0.601324440951454,0.139755899023754,0.808014556025574,0.205521946364591,0.278085135542872,-0.0765153352850572,-0.932600508498185,0.0811466516451547,-0.0960663667523418,0.183858959219487,-0.133741904777489,0.0997320335947209,-0.902212702405404,0.0451904145554834,0.148092440209161,0.12091900955709,0.0567470919812613,-0.68554205377892,-0.858982373875692,0.203023640174999,-0.0049234380133088,0.0127455375281641,0.197987654365745,0.147569926585978,idle
59.11,-0.602788501353064,0.140751501587219,0.811301577303282,0.195370489853511,0.246925263896073,-0.0909614769470648,-0.918510094963489,0.085496517638063,-0.0910145817499485,0.181957786797934,-0.1214209570996,0.0954735014740307,-0.89030006199148,0.0457798720494218,0.143124225551924,0.119275392292868,0.0542806522380226,-0.664747680535629,-0.84784878727524,0.200178400092637,-0.0009877330112005,0.0464241718853379,0.183893740378763,0.130164377292442,idle
59.115,-0.604098702983745,0.141457991926123,0.814325943013613,0.180951846506659,0.209361164986389,-0.105329984762499,-0.903858894214807,0.089531961446714,-0.0875400729343434,0.175196012926254,-0.107992924706924,0.0906781932088692,-0.878277713749352,0.043044083109265,0.138745645885854,0.112543129937633,0.0517242977968158,-0.644560764609593,-0.836293103754267,0.198177229110591,0.0047443179174833,0.0791117692922899,0.170215876232444,0.112442544380499,idle
59.12,-0.605221644213008,0.141741006422645,0.816977795721929,0.162317230065468,0.165258746166482,-0.119581256451642,-0.88878477124498,0.0931654388386094,-0.0857333755731694,0.163561274388021,-0.0939384397160235,0.0854040252766768,-0.866223750903695,0.0369043541313764,0.135075266920773,0.100720628697619,0.0490692041162263,-0.625452536746936,-0.824402859379427,0.197122772349932,0.0120110644711135,0.110890506108898,0.157331009302152,0.0942168055892024,idle
59.125,-0.606121589351828,0.141495051638274,0.819152985073068,0.139601402595258,0.11458990699618,-0.133720561752067,-0.873477647869778,0.0963197701594715,-0.0856387648677242,0.14713259957786,-0.0797633365134024,0.0797246405177758,-0.854258494680691,0.0273699366464642,0.132217485279291,0.0839001061963116,0.0463183902638748,-0.60790631150492,-0.812322709853581,0.197073412324193,0.0205087681242743,0.141791584661572,0.145591026350743,0.0752804986574678,idle
59.13,-0.606756012352075,0.140661342783037,0.820752294187508,0.113034016502127,0.0574501931874943,-0.147788997012585,-0.858177226693735,0.0989264456426092,-0.0872538868956365,0.126089700006866,-0.065988865568963,0.0737283204099603,-0.842542824251826,0.0145527429468107,0.130258791023727,0.0622769182278538,0.0434857292159526,-0.592405274896974,-0.80025620991904,0.1980363380796,0.029882273300348,0.17178625367864,0.135310061834914,0.0554214366239942,idle
59.135,-0.60707363330321,0.139244739476877,0.821688012599507,0.0829531941423616,-0.0059244193956679,-0.161846943651231,-0.843171217778719,0.10092525241586,-0.0905259669391115,0.100723661875051,-0.0531390481813243,0.0675170340996363,-0.8312759750486,-0.0013305752968315,0.129267212674725,0.0361602542737817,0.0405947155730674,-0.579417778825281,-0.788463204634353,0.199960067389114,0.0397337911953219,0.200781482402395,0.126750133509886,0.0344358689080351,idle
59.14,-0.607014529170231,0.137322030060452,0.821892370893615,0.0498109899246729,-0.0751464409285505,-0.175947050205226,-0.828791981674382,0.102269569798626,-0.0953473531713923,0.0714364514466339,-0.0417280691459194,0.0612034525168636,-0.820695596247434,-0.019975555463056,0.129293068120012,0.0059725055142399,0.0376759709797507,-0.569383023046797,-0.777257057705212,0.202744422158859,0.0496299062585351,0.228620899588791,0.120108847878583,0.0121435317918668,idle
59.145,-0.606517688078259,0.135031761236314,0.821319614442684,0.0141654640030413,-0.149667224011106,-0.190110352757022,-0.815412732108254,0.102933080005319,-0.101554093526142,0.0387260704814347,-0.0322496774911354,0.0549068714425215,-0.811077128346581,-0.0409957860464243,0.130371529766809,-0.0277661868503563,0.0347644765203358,-0.562702446528878,-0.766998929700238,0.206260901991426,0.0590967844238315,0.255084532542788,0.115504829096809,-0.011605396999677,idle
59.15,-0.605531312493375,0.132562415996276,0.819948300106985,-0.0233339254905851,-0.228768936539633,-0.204311747833763,-0.803439453267714,0.102903913711705,-0.108932249982976,0.0031681283195773,-0.0251639572134664,0.0487494112574945,-0.802720647368055,-0.0639091860853726,0.132518387939357,-0.0644573055781797,0.0318971426944011,-0.55973112612529,-0.758084086383268,0.210333250696296,0.067633761907442,0.279890772413855,0.112960594230467,-0.0369280539221833,idle
59.155,-0.604022476566047,0.130138205595875,0.817787264998876,-0.061956570385794,-0.311565149776638,-0.218458128865552,-0.793300308501383,0.102173950349484,-0.117229562755561,-0.0345948004685386,-0.0208775816794954,0.0428510182024794,-0.79593417191142,-0.088129840999757,0.135720538136471,-0.103435250664149,0.0291088054773661,-0.560758820467707,-0.750925561953595,0.214705712569762,0.0747479677469902,0.302712805305353,0.112392589116847,-0.0638928722930768,idle
59.16,-0.602002629025563,0.127972324825733,0.814892592749562,-0.100903494029501,-0.397008838853096,-0.232371898597185,-0.78544046939289,0.100753078311096,-0.126158882445974,-0.0738614976430633,-0.0197219793338952,0.0373234841796166,-0.791036519662487,-0.112981988846241,0.13993747630068,-0.143976293496239,0.0264273875763611,-0.565988175850079,-0.745945514972896,0.21908058640923,0.07996702660369,0.323202265722325,0.113607355077114,-0.0924990146299114,idle
59.165,-0.599561675879836,0.12621005036282,0.811394887172948,-0.139348589382174,-0.483908032049046,-0.245821255501931,-0.780317219730637,0.0986999208723806,-0.135392551891398,-0.113901579490987,-0.0219347196307404,0.0322658787796387,-0.788367711806498,-0.13772711539863,0.145112386801745,-0.18532957447084,0.0238721422918087,-0.575524925605808,-0.743569317265611,0.223186372427842,0.0828326084975535,0.341001759373553,0.116294769447222,-0.122680081597098,idle
59.17,-0.596863125744832,0.124919940464941,0.807499985464534,-0.17650337672509,-0.57095265614113,-0.258581356342379,-0.778383372227246,0.0961201287150875,-0.144568190948973,-0.15400515295808,-0.0276432517796002,0.0277610414913331,-0.788274675301012,-0.161590740392796,0.151172367021755,-0.226768716212248,0.0214543960469062,-0.589375089324324,-0.744210914742342,0.226770068054232,0.0829221411562339,0.355750623776167,0.120022998996455,-0.154322992013567,idle
59.175,-0.594090376936333,0.124125948818792,0.803447697600461,-0.211665917904654,-0.656740480745587,-0.270467310177333,-0.780060612280082,0.0931231385484193,-0.153313404988289,-0.193519112204653,-0.0368506821154326,0.0238706119537918,-0.791074907380455,-0.183786721294154,0.158015973548993,-0.267629061009195,0.0191759036931486,-0.607435419915319,-0.748252037158564,0.22952535504376,0.079899283167096,0.367101825553345,0.124246554696668,-0.187266910336284,idle
59.18,-0.591387795762404,0.123841752589683,0.7994706637997,-0.244235085710191,-0.73979335885978,-0.281323151439959,-0.785707159384932,0.0897665668244708,-0.161281459003261,-0.231851413511643,-0.0494266002605458,0.0206285962451733,-0.79701715626691,-0.203527731424153,0.165504710373061,-0.307311590077699,0.017023684352006,-0.629478451872293,-0.75602018986271,0.231037062429288,0.0735427099749474,0.374751679653242,0.128326170779753,-0.221276857644766,idle
59.185,-0.58883465641665,0.124081492671945,0.795787083670792,-0.273686478017228,-0.818580510112771,-0.290972841243376,-0.795586319299173,0.0860206826504515,-0.168180277739544,-0.268438071207492,-0.0651012117360639,0.0180359281916448,-0.806253146591695,-0.220024831908495,0.173464632358932,-0.345249212260652,0.0149638873057831,-0.655139304775047,-0.767767651187235,0.23077917764174,0.0637423345696885,0.378474701298858,0.131546500206658,-0.256008551509331,idle
59.19,-0.586469284041059,0.124806950046593,0.792623937792573,-0.299537443841145,-0.891558441543412,-0.299168785051017,-0.809857553558927,0.0818048555297375,-0.17375667281153,-0.302698134147995,-0.0834616627107562,0.0160565648499895,-0.818848176270196,-0.232535320823625,0.181698818108845,-0.380861109381014,0.0129374611416644,-0.68390782863159,-0.783659302963682,0.228188284054351,0.050537930014071,0.37815290882332,0.133131685788937,-0.290981195422603,idle
59.195,-0.584330237292141,0.125849060059064,0.790242023359449,-0.32137555999708,-0.957210569868441,-0.305624866007554,-0.828585514569824,0.0770726784531967,-0.177746757851149,-0.334048786193899,-0.103959652068622,0.014614881942971,-0.834816137272353,-0.240458419712449,0.190010811979923,-0.413566442331599,0.0108613355819844,-0.715131505127271,-0.803762578515024,0.222771118890463,0.0342205676271036,0.373780945806379,0.132291225782964,-0.325578539088311,idle
59.2,-0.582443282074678,0.1269188129175,0.788924359568145,-0.338937851560365,-1.01407979757443,-0.310117777528498,-0.851723639806807,0.0718220779678882,-0.179868451526028,-0.361972783149697,-0.125931788030354,0.0135964711314534,-0.854108211370465,-0.243362814887114,0.198221259493697,-0.442848916905746,0.0086350724675195,-0.748025020659361,-0.828022428796442,0.214135618636419,0.0153648608531004,0.365453443389791,0.128303573743148,-0.359073342534936,idle
59.205,-0.580758310506352,0.127698803486454,0.788930220594391,-0.352133482488066,-1.06080905242652,-0.312529099113324,-0.879065161177376,0.0660190094463944,-0.179866399096727,-0.386037638137321,-0.148618568005926,0.012852753969847,-0.876551806928694,-0.240919451702912,0.206163100750447,-0.468272304448528,0.0061474528706348,-0.781673015245223,-0.856230534109043,0.201953030859567,-0.0052775368423711,0.353369126396683,0.120588094687738,-0.390644603827625,idle
59.21,-0.579109562317235,0.127906075959877,0.790452997832575,-0.360989074547999,-1.09619442146475,-0.312803545736345,-0.91020120595811,0.0595532343099989,-0.177547610952301,-0.405844722994356,-0.171177734604074,0.0122072783778831,-0.901809932819297,-0.232852237745818,0.213669301759503,-0.489426368516959,0.0032811373580517,-0.815029491517169,-0.888011030761853,0.185963482176666,-0.0269134207516957,0.337854868098229,0.10873252903128,-0.419385980618967,idle
59.215,-0.577227239409485,0.127304866311286,0.793604865582235,-0.365581819235404,-1.11924121633817,-0.310898530597873,-0.944509052010642,0.0522791111827078,-0.172774809675183,-0.420970623114119,-0.192702236654056,0.01146302538838,-0.929385954853147,-0.218986151327644,0.220570637449321,-0.50586635788539,-8.14048724880889e-05,-0.846931749776909,-0.922820641021804,0.166027948571087,-0.0487321568124862,0.319380292017083,0.0924908100057638,-0.444329032072733,idle
59.22,-0.57477721079463,0.125723128999964,0.798427457237151,-0.366019670375069,-1.12921575918407,-0.306767208613202,-0.981168074931079,0.0441080685600182,-0.165424362760384,-0.430966668591306,-0.212250790478027,0.0104089791871968,-0.958649407239273,-0.199371573056116,0.226707536378169,-0.517110917603795,-0.0040503172131882,-0.876128954607446,-0.959946747272696,0.142163333181893,-0.0697848602726838,0.298554329502592,0.0717989002806071,-0.464479961582071,idle
59.225,-0.571410218156819,0.123097062250276,0.80490008033737,-0.362487101082292,-1.12568907137246,-0.300373413012455,-1.01919030140238,0.0350910346728325,-0.155362226628936,-0.435444257583525,-0.228890822375361,0.008826130145985,-0.988864870494333,-0.174363581951421,0.231950382524038,-0.522724427269238,-0.0087203700517613,-0.901312255010906,-0.998505169199919,0.114586724176842,-0.0888973184558346,0.276115516454052,0.0468444421070322,-0.478859675229928,idle
59.23,-0.56681654558538,0.119516394076273,0.812916918260493,-0.355292482869527,-1.10857256606863,-0.291714721854733,-1.05745184722643,0.0254463138180443,-0.142487169636292,-0.434172815455811,-0.241742486607918,0.0065007501499681,-1.01921884833478,-0.144572576994112,0.236210289465174,-0.522412776413782,-0.01415973242241,-0.921149253973046,-1.03745715768955,0.0837861835146935,-0.104788517319932,0.25291812213927,0.018136512411472,-0.486562851972494,idle
59.235,-0.560778136167048,0.115238938602643,0.822253168005867,-0.344860583074696,-1.07814417256272,-0.280838716083397,-1.09473259496248,0.0155553613487318,-0.126798642923377,-0.427116570412626,-0.250013818304872,0.0032474971364619,-1.04884881150435,-0.110795613118558,0.239432000234383,-0.516061813638662,-0.0203946954136754,-0.934331480025365,-1.07565401263197,0.0505422394472894,-0.116250753478292,0.229908833064555,-0.0134889148067241,-0.48683857374628,idle
59.24,-0.553208189463472,0.110678673827894,0.832557820277528,-0.331705725490609,-1.03505471905701,-0.267858888185278,-1.1297789773276,0.0059553225504805,-0.10843561606037,-0.414445368971589,-0.253033361736552,-0.0010666075916217,-1.07687999478242,-0.0740337762245382,0.241587130090587,-0.503752656730529,-0.0273965058155544,-0.939631324797447,-1.11189704026739,0.0158755630442903,-0.122217009787457,0.208093199084776,-0.0468992989671428,-0.479162350454455,idle
59.245,-0.544165930911261,0.106386653185003,0.84335489033736,-0.316418946723797,-0.980310876752287,-0.252969230132767,-1.16138756284619,-0.0026999733821525,-0.0877114951637949,-0.396558122532207,-0.250286577530195,-0.0065032894680782,-1.10246964052442,-0.0355180159738002,0.242683519202606,-0.485790550058738,-0.0350747263904165,-0.935961977978008,-1.14499944665562,-0.0190176794855264,-0.121780181980603,0.18849670333166,-0.0806938599839616,-0.463284529758851,idle
59.25,-0.533833527202842,0.10301352226615,0.854014840534122,-0.299629279656928,-0.91522312968126,-0.23643604646138,-1.18849936857739,-0.009741741319124,-0.0651723911054567,-0.374070024904175,-0.24145160347453,-0.0130365227635334,-1.1248564150083,0.0033392412434508,0.242786383117192,-0.462698428355126,-0.0432736390685144,-0.922437933680234,-1.17384865373163,-0.0528197415540208,-0.114243064497373,0.172121349283195,-0.113239809315398,-0.43926302031484,idle
59.255,-0.522518613061884,0.101204079879861,0.863803319168845,-0.281906296732178,-0.841302707117173,-0.218556935942515,-1.21028384866587,-0.0145812909040521,-0.0416060518765477,-0.347716267638782,-0.226429323880452,-0.0205387001308765,-1.14340692793081,0.0410259962360646,0.242025707359362,-0.435128116162509,-0.0517685832502733,-0.898434287324714,-1.1974761346642,-0.0841670549779856,-0.0992065938058154,0.159891671899125,-0.142727681263073,-0.407482363670018,idle
59.26,-0.510739717365236,0.10144466850188,0.872097626196992,-0.263706972162217,-0.760177082976638,-0.199649862992105,-1.22618291851833,-0.0167123415625904,-0.017945168879741,-0.318280556557077,-0.205355276587951,-0.0287814195198449,-1.15764753792942,0.0760108110382632,0.240565399391568,-0.403797121104283,-0.0602723029516125,-0.863634778203332,-1.21513473014634,-0.111764079644529,-0.0767093192389025,0.1526047604661,-0.167254891872175,-0.368651035315559,idle
59.265,-0.499239762152414,0.103980020514459,0.878514412118593,-0.245435698280742,-0.673592340482909,-0.180106984686483,-1.23592670829138,-0.0157398337125,0.0048017942651357,-0.286631892343058,-0.178581847055235,-0.0374548977682424,-1.16728391031749,0.106853788556014,0.238571369671153,-0.369533364232894,-0.0684583842209531,-0.818056260089768,-1.22635969564632,-0.134494677286075,-0.0473487654088724,0.15090628330935,-0.184950854548947,-0.323770332558791,idle
59.27,-0.488766901591444,0.10882038182817,0.882840844409761,-0.227456290631793,-0.583395612236856,-0.16040672763357,-1.23957992477066,-0.011530125209989,0.0256004171009334,-0.253697993092717,-0.146650372142967,-0.0461920376435112,-1.17221989331347,0.132299876014291,0.236232286993569,-0.333254183526967,-0.0759860257132192,-0.762057240778802,-1.23099173794471,-0.151482823022149,-0.0122613238428785,0.155275213236485,-0.194125049669759,-0.274081388505085,idle
59.275,-0.479901615246885,0.115713741094095,0.885039201865536,-0.210015638973222,-0.491420512382486,-0.141052574915287,-1.23756953733945,-0.0042847212534522,0.0435187243650701,-0.220332143406361,-0.110277557702645,-0.054594556856257,-1.17256840933032,0.151267956215912,0.233801949010344,-0.295834805229142,-0.0825195367043911,-0.696344401938179,-1.22917053258472,-0.162117554885383,0.0270112919803282,0.165997418787341,-0.193390879170375,-0.221005174413455,idle
59.28,-0.473135103162831,0.124089714425737,0.885337911919168,-0.193279697229918,-0.399399915897555,-0.122558422739611,-1.23060944274245,0.0055405179716894,0.0578119415107551,-0.187307366829385,-0.0703425188713445,-0.0622699731440505,-1.16863586789187,0.162833617002503,0.231602615937195,-0.258100334906102,-0.0877585853777531,-0.621967961358786,-1.22131229774894,-0.166079627863493,0.0686223216452597,0.183148150484365,-0.181749524165194,-0.166083737825084,idle
59.285,-0.468852182380086,0.133119930316907,0.884185318719462,-0.177460939886093,-0.308957186832562,-0.10547417097502,-1.21959967270088,0.0172608653339621,0.0679277433049694,-0.155423475121591,-0.0278565341428319,-0.0688720916182516,-1.16088202281744,0.166339964723743,0.229985517071304,-0.220927959546192,-0.091475821200031,-0.540292339359151,-1.20807409791659,-0.163371725891524,0.110452992447591,0.206597887777717,-0.158661062169141,-0.110918985204279,idle
59.29,-0.467163910226182,0.141840439667042,0.882079221583349,-0.1628215619494,-0.221568035547876,-0.090337046423289,-1.20554633851788,0.0299113838407802,0.0734885693157088,-0.125476665462687,0.0160745008521147,-0.0741322011261993,-1.1498700751704,0.161557133588854,0.229277718228787,-0.185209974843577,-0.0935394726639681,-0.452947174106798,-1.19030468775021,-0.154335872146778,0.150168026467067,0.236024123758811,-0.124118304874336,-0.0570998222256976,idle
59.295,-0.467891803823506,0.149219957982651,0.879509548338904,-0.149576268277805,-0.138491418418275,-0.0775805084521968,-1.18946562221924,0.0423167240345615,0.0743166327972323,-0.0981125766662695,0.0602912825870771,-0.07788114269268,-1.13621641917943,0.148740294566676,0.229745815799168,-0.151699709560851,-0.0939193217145118,-0.361763630038409,-1.16897796014002,-0.139628704957121,0.185351030608104,0.27091904176494,-0.0787030664193631,-0.0061214956523448,idle
59.3,-0.470685522831658,0.154233741624446,0.877016199268073,-0.137862747563544,-0.0607619617389841,-0.0675026555748356,-1.17229106492089,0.0532873568144436,0.0705014795989058,-0.0737656640331265,0.103633054194621,-0.0800636339847601,-1.12055022047945,0.128565716317615,0.231592128116928,-0.120944579122737,-0.0926881266229819,-0.268697008036386,-1.14511477417481,-0.120125690312675,0.213696680658972,0.310599531694389,-0.0235957739522186,0.0406791856553827,idle
59.305,-0.475093949230423,0.156003445803647,0.875155183249588,-0.127783500302693,0.0107690564921138,-0.0602844865568384,-1.1548099009957,0.0617907889259199,0.062405389784992,-0.0527023599613941,0.14498923132676,-0.0807390214250748,-1.10348294012794,0.102013936581128,0.234962242953553,-0.0933245709393545,-0.0900168924065155,-0.175749114114831,-1.11971325975222,-0.0967974086505551,0.233216214958341,0.354215896878216,0.0394709204701246,0.0821527969205787,idle
59.31,-0.480569567601818,0.153953215628038,0.874371432105854,-0.119434493205081,0.0754097918150158,-0.0559994201946635,-1.13761749800252,0.0670488685941038,0.0506010245419293,-0.0350709950122123,0.183336506696924,-0.0800660794906134,-1.08557015031463,0.0702582846584172,0.239927531294066,-0.069098636689856,-0.0861575807328328,-0.0848979210132043,-1.09369876344594,-0.0706570294942969,0.242444954523326,0.400761366479479,0.108311169412762,0.117342342190064,idle
59.315,-0.486484772150729,0.147907450622889,0.874897348233905,-0.112894962571072,0.132626157080434,-0.0545969979580275,-1.12107600535662,0.0685919070660323,0.0357910455660883,-0.0209205306899693,0.217764663567747,-0.0782778162123623,-1.06726304134873,0.0345936222266337,0.246431518511493,-0.0484195194661849,-0.0814162070704591,0.0019776511695439,-1.06789504821094,-0.0427907272321919,0.240583714812656,0.449100911299304,0.180438215670972,0.145500099479595,idle
59.32,-0.492190973673146,0.138108214171464,0.876705222665518,-0.108191717250762,0.182035221326178,-0.0558770997964119,-1.10528507504325,0.0662932330139981,0.0187278069135729,-0.0101914633130208,0.247501750189398,-0.0756541388356597,-1.04887316002991,-0.0035918581335882,0.254224344969021,-0.0313211706907798,-0.0761238831837644,0.0831770467904082,-1.04302046479921,-0.0143724013815546,0.227436169379672,0.498016577825249,0.253232322812229,0.166130031052898,idle
59.325,-0.497102235920188,0.125186573584537,0.879497719687019,-0.105261487047559,0.223389127551437,-0.0594777547288452,-1.09009313100437,0.0603923532875485,0.0001421737148933,-0.0026980154276746,0.271940365827118,-0.0724962413002112,-1.03057414247214,-0.0428658960555338,0.262850001921668,-0.0177008421050945,-0.0706112071042285,0.157235389850527,-1.01969403768898,0.0134057867801553,0.203229405488493,0.546248779848404,0.324052189617368,0.179030363323928,idle
59.33,-0.500789151827543,0.11010902561194,0.882764159040049,-0.103932683417536,0.256562775426175,-0.0648848679710982,-1.07516882044139,0.0514976485878306,-0.019299655190432,0.0018674542423737,0.290655907427543,-0.0690989670469097,-1.01244095038698,-0.0818682426995453,0.271733555281991,-0.0073265663061492,-0.0651838230658213,0.222947277039601,-0.99841623957624,0.0394533645707047,0.168613723090377,0.592531339594824,0.390303145151894,0.184300450779968,idle
59.335,-0.50304987943068,0.0940697664562794,0.885892917695401,-0.103942485656666,0.281539937751864,-0.0714716525208053,-1.06009896555491,0.0405364856389157,-0.0390079130074656,0.0038841622629858,0.303414414244499,-0.0657176222256596,-0.994494155108772,-0.119420209997521,0.280293817508192,0.0001102885904277,-0.0600952719899082,0.27938114410038,-0.979532287814703,0.0628542521340323,0.124822255381001,0.63562613765223,0.449556933437826,0.182304575310986,idle
59.34,-0.503900901600244,0.078333082780888,0.888248562788846,-0.104975748770929,0.298392895562953,-0.0785629808647052,-1.04447214841654,0.0286178922945771,-0.0584952105987663,0.0037368733600899,0.310176068158544,-0.0625396946740317,-0.976728108354884,-0.15455652414231,0.287980510300056,0.0049298160417552,-0.0555244047771876,0.32590238294657,-0.963237186801637,0.0828497457624214,0.0736555651060503,0.674356290521987,0.499722934492015,0.17363180849285,idle
59.345,-0.503507762923988,0.0640856601286198,0.889194399199823,-0.106674808799903,0.307278076673496,-0.0854840746583336,-1.02795451989898,0.0168505129247218,-0.0774312666922724,0.0018053628980429,0.311088953162419,-0.0596735469809584,-0.959143449464467,-0.186527179481573,0.294277099137239,0.0074549926371369,-0.0515662882827968,0.3621826235393,-0.94962859107527,0.0988188165887685,0.0172350190199725,0.707640082809254,0.539166240713924,0.159078576298859,idle
59.35,-0.502129714300263,0.0523218929516007,0.888129919972184,-0.108617316336206,0.308457024706122,-0.0915823386297156,-1.01035481000404,0.0062050597911551,-0.0956615566687662,-0.0014954808930293,0.306465437920651,-0.0571502733089839,-0.941783890324884,-0.214806938002646,0.298738845188128,0.0080528305599821,-0.0482344092118325,0.388175313326572,-0.938747361360835,0.110307727993236,-0.0422404825050671,0.734531475480051,0.566737499502255,0.139625191470074,idle
59.355,-0.50010308750136,0.0437463650678787,0.884569704463078,-0.110306272206771,0.302322214308572,-0.0962496637726558,-0.991654931188581,-0.0025579934646462,-0.11316777513405,-0.0056842511599402,0.296750450497414,-0.0549327505385332,-0.92475375121191,-0.239091130239183,0.301040447970421,0.0071665272991381,-0.0454709356868889,0.404075755786215,-0.930584881303128,0.117055502408397,-0.10262917444909,0.754268432124435,0.5817564344672,0.116391880950464,idle
59.36,-0.497850145045686,0.0387021547001001,0.878289177086347,-0.11119884187112,0.289401398068588,-0.0989577340006958,-0.972030819830414,-0.0088986610453947,-0.129973756968297,-0.010223471240303,0.282491211539273,-0.0529324793565325,-0.908234011038593,-0.259309379329138,0.301022002227827,0.0053059065677946,-0.0431660805437901,0.410281820344085,-0.925077397694269,0.1190267185781,-0.161872718940969,0.766317689885997,0.583979269641083,0.0905880373320176,idle
59.365,-0.495859599773108,0.03714920848377,0.869457531811598,-0.110807368640232,0.270318161176662,-0.0993249688345644,-0.951875331296078,-0.0124860722438262,-0.146038742184722,-0.0146167918855374,0.264305286315533,-0.0510314609053523,-0.892503807757427,-0.275635045850952,0.298730610254781,0.0029509388655103,-0.0411839797523187,0.407352447001987,-0.922101201388176,0.116453670749655,-0.217969755325786,0.770396770160852,0.573583295624808,0.0634413610295667,idle
59.37,-0.494569354661647,0.0387127127964022,0.858534325350965,-0.108812114589517,0.245743725021811,-0.097183562639011,-0.931772622760929,-0.0132720745190908,-0.161277894669759,-0.0185220787646487,0.242846749661058,-0.0491045545638917,-0.877922781888999,-0.28837447864931,0.29440010187328,0.0004396781392224,-0.0393868907434056,0.395970568438663,-0.921481914207027,0.109780596341517,-0.269042137677915,0.76647372922283,0.551164513574826,0.0361179172324417,idle
59.375,-0.494232782245574,0.0427842496358824,0.846045315245729,-0.105028485928568,0.216414406082787,-0.0925527730337978,-0.912431978319877,-0.0115758869389863,-0.175661040277928,-0.0216932199058149,0.218776374833637,-0.0470384083984043,-0.864882816484989,-0.297826230260716,0.288387037336147,-0.0019719667607335,-0.037650064868228,0.376921438434167,-0.923010742191748,0.0995515194337422,-0.313448057175824,0.754762916999744,0.51769860179711,0.0096841482719535,idle
59.38,-0.494945707640737,0.0485997065826809,0.832591252872614,-0.0992943150045435,0.183177374650142,-0.0855561963371826,-0.894634272173403,-0.0079724919949986,-0.18917455922162,-0.0238353419208259,0.192733798256867,-0.0447444730501808,-0.853789963916006,-0.30431102957773,0.281141877761665,-0.0039642820040848,-0.0358704620985362,0.351074763368446,-0.926449997916363,0.0864137912497459,-0.349795993986862,0.735716620144271,0.47448150947523,-0.0149048794172278,idle
59.385,-0.496761989065741,0.0552830570101135,0.818982415738936,-0.0915008880707697,0.146964076601864,-0.076422150121643,-0.879179018913852,-0.0030688273720065,-0.201687837039969,-0.0246395582192723,0.165308371936601,-0.0421699036667465,-0.845061844855982,-0.308252152381472,0.273188014227252,-0.0051888502243321,-0.033978660473641,0.319353600145216,-0.931538013093436,0.0711835251871106,-0.376963741206947,0.710001260564531,0.423086427952613,-0.0368488874833895,idle
59.39,-0.499686425909748,0.0619397520808042,0.806154195997101,-0.0817178121487094,0.108718982161283,-0.0655455777828108,-0.866806700300699,0.0025735418037644,-0.212941528849945,-0.0239309486731146,0.137019258733391,-0.0393069131559433,-0.839084011063787,-0.310085232799941,0.265053807260166,-0.0054181754669452,-0.0319499769130419,0.282702836560704,-0.938000083596561,0.0547885998889196,-0.394205470650603,0.678463354377204,0.365305771710518,-0.0555594182680379,idle
59.395,-0.503584095899724,0.0677978740417575,0.79492722368317,-0.0701977030710932,0.0693720150415054,-0.0534759165511327,-0.858120572003346,0.0083897395240828,-0.22265540058147,-0.021680143228107,0.108313932614975,-0.0361940972185112,-0.836142086323825,-0.310109717856638,0.257196549089159,-0.0045589326244452,-0.0298040567793358,0.242078923489422,-0.945555565036137,0.0381122314404558,-0.401206006113893,0.642094154672404,0.303063371041592,-0.070672389631638,idle
59.4,-0.508163790708823,0.072300213344629,0.78587121219457,-0.057271921300998,0.0298534477631336,-0.0408240618258797,-0.853539304402975,0.0138185098515389,-0.230599126308834,-0.0178985595589401,0.079576553172773,-0.0329101922465261,-0.83638530751102,-0.308472046919863,0.249970182030494,-0.0025484601988974,-0.0275961874615331,0.198453269473005,-0.953925059410764,0.0219014359714438,-0.398045207326291,0.601994264925852,0.238330024431341,-0.082014562817733,idle
59.405,-0.513043584168098,0.0751247897031202,0.779302818898349,-0.0432652108541447,-0.0088904580170619,-0.0281772033662401,-0.853278865165803,0.0183772904973429,-0.236603265348144,-0.0125627340378664,0.0511345039087406,-0.0295642254591019,-0.83982947378007,-0.30523391646661,0.243633513682552,0.0007189836376841,-0.0254070251716863,0.152806135085247,-0.96283940420352,0.0067951735398026,-0.385170697412129,0.55933731296644,0.17304803812403,-0.0895686684214448,idle
59.41,-0.517847435024151,0.0761741027589267,0.775359380884052,-0.0284500383206733,-0.0459011032186309,-0.0160499661992816,-0.857345073763476,0.0217506130731596,-0.240539228304159,-0.0055875166880263,0.0232617521110475,-0.0262810703881633,-0.846368830935718,-0.300439198184014,0.238361564455978,0.0054155264001476,-0.0233292090317555,0.106102810297157,-0.972038930363572,-0.0066308196921123,-0.363349018787383,0.515324489566334,0.109053250734473,-0.0934643826896343,idle
59.415,-0.522301008791587,0.0755381128443899,0.77410917109111,-0.0130655247988195,-0.0802536423038093,-0.0048776063959696,-0.865533940104921,0.0238697836107141,-0.242264219884246,0.0031242426584278,-0.0038133272550975,-0.0231882083116511,-0.855781048027553,-0.294171654518036,0.234234336288041,0.0117263438668115,-0.0214555586073873,0.0592710335394764,-0.981268682286425,-0.0179035873567406,-0.333537944963697,0.4711284028805,0.0480250717660322,-0.0939729407822963,idle
59.42,-0.526247634534359,0.0734544663674534,0.775568589571881,0.0025915681850659,-0.111135341885417,0.0049501632194397,-0.877450752578871,0.0248915623110716,-0.241622863788959,0.0135530466801599,-0.0298916552246178,-0.020410732197538,-0.867732882206745,-0.286560851482202,0.231233321512761,0.0197189783063935,-0.0198751244296933,0.0131979893559238,-0.99028442786884,-0.0267162047635024,-0.296802031717001,0.427845225270109,-0.0085172565064679,-0.0914744940480361,idle
59.425,-0.529574672534876,0.0702976245057324,0.779596108955738,0.0181375866605691,-0.13789030356774,0.0130867429487578,-0.892545565986444,0.025063924713838,-0.238544679226067,0.0255105365269487,-0.0547896294375807,-0.0180655048125036,-0.881794212560831,-0.277722576895481,0.229274795745516,0.0292893606775604,-0.0186681373895136,-0.031272160366292,-0.998862011194498,-0.0329165783738663,-0.25434759582665,0.386461944692836,-0.0592240945612871,-0.0864165651826986,idle
59.43,-0.532174037201755,0.0665543360466496,0.785843457283349,0.0331839515647727,-0.160009812290787,0.0192837956781391,-0.910154355396778,0.0246363613473603,-0.233093987728837,0.0387179336332985,-0.0783326174252235,-0.016247958487103,-0.897460880024169,-0.267713620920987,0.228245977657722,0.0402374492826336,-0.017893964162642,-0.0733539602055183,-1.00679735351924,-0.0364705479155328,-0.207530906897339,0.347827976075601,-0.102956001894798,-0.079289462164987,idle
59.435,-0.533973031848075,0.0627585920555889,0.793837773597822,0.0474051466884538,-0.177116978577779,0.0234317955966263,-0.929540968047492,0.0238630343168602,-0.225421802105698,0.0528745821154827,-0.100345216238957,-0.0150212121838838,-0.914182527167355,-0.256549306791118,0.228017725957331,0.0523335414828243,-0.0175815946730735,-0.112327397220115,-1.01390766607971,-0.0374646211032006,-0.157780472918774,0.312636239546341,-0.138809267467114,-0.0706053947397703,idle
59.44,-0.534953623955674,0.0594190545893592,0.803076010513935,0.0605442254995703,-0.18897264158041,0.0255622981606896,-0.949931083835481,0.0230044831080251,-0.215725606062196,0.0676616186077598,-0.120641276397082,-0.0144135692623563,-0.931387120477524,-0.244248943866043,0.228442581924702,0.0653205984994442,-0.0177286836326367,-0.147537031785035,-1.02004970822619,-0.0361194352732952,-0.106565427264681,0.281419067365846,-0.166119723028595,-0.0608716078995787,idle
59.445,-0.535145599581585,0.0569529223059012,0.813066188319819,0.0724022176403394,-0.195490921926053,0.0258323706049517,-0.970538089295416,0.022306428221278,-0.204245838574869,0.0827357551398512,-0.13902548006519,-0.0144218052575689,-0.948499299347654,-0.230861090107402,0.229349461505207,0.0789059933283222,-0.0183068350766497,-0.178407529510893,-1.0251334295032,-0.0327871155069182,-0.0553928440145239,0.254548291221705,-0.184485726691765,-0.0505623905709959,stand
59.45,-0.534620441117553,0.055641773374636,0.823345847744742,0.0828273390979444,-0.196749694988869,0.0244865337614113,-0.990598150718988,0.021978135905547,-0.191258223308338,0.0977351735229447,-0.155300196477995,-0.0150160692523137,-0.964961267105127,-0.216459259342133,0.230556797812877,0.0927656775561913,-0.0192683202533456,-0.204461557980385,-1.02910671028032,-0.0279274326260581,-0.0057227834623848,0.232239201006544,-0.193788066658139,-0.0400909019652489,stand
59.455,-0.533471634399299,0.0556294495149757,0.833497522505992,0.0917072011861787,-0.192987534102611,0.0218139321702797,-1.00941380566878,0.0221652299292614,-0.17706160884465,0.11229287479834,-0.169269891846983,-0.0161440124069281,-0.98026079234323,-0.201138226595061,0.231898907084742,0.106557409129305,-0.0205512239929962,-0.225322515376166,-1.03194820502322,-0.0220658006209643,0.0410945013497317,0.214562162960586,-0.194173946228239,-0.0297883138124692,stand
59.46,-0.531786147900707,0.0569375833836407,0.843158434389684,0.0989655374240933,-0.184587336239976,0.0181268333197082,-1.02638895741378,0.0229304709894161,-0.161970759294742,0.126050682089383,-0.180750370539056,-0.0177371229358112,-0.993958509552327,-0.185026946605702,0.233238393125714,0.119934538809364,-0.022086507199391,-0.240723251427515,-1.03368497519803,-0.0157496167462204,0.0838002364993511,0.201450875508231,-0.186046603713337,-0.0198939911250539,stand
59.465,-0.529637236039204,0.0594735579518896,0.852027403008135,0.104557202724377,-0.172049719498082,0.0137471269083996,-1.04105298610908,0.0242592891490899,-0.146307016073564,0.138669982490715,-0.189584107063881,-0.0197190933916099,-1.00570674647276,-0.168300070339891,0.234475112124823,0.132556222329763,-0.0238068484454689,-0.250524346675366,-1.03438667982485,-0.0094998818935996,0.121271216304606,0.192708896216822,-0.170067855234011,-0.0105544069878106,stand
59.47,-0.527095000059513,0.0630434581145973,0.859877111910472,0.108461330547818,-0.15596017126918,0.0089820418442969,-1.05307350104562,0.0260799536707483,-0.13038817754002,0.149841586556129,-0.195653851795354,-0.0220110099162653,-1.01525841870451,-0.151179812053637,0.235556715371594,0.14409821998557,-0.0256514021692163,-0.254720200864299,-1.0341392242495,-0.0037656292034816,0.152613486762178,0.188029721787918,-0.147130064082753,-0.0018348849561179,stand
59.475,-0.524236715506826,0.0673859532740254,0.866575052512529,0.110674535479352,-0.136961274440147,0.0040973153741454,-1.062254770947,0.0282841214043951,-0.114522630574023,0.159293413726204,-0.19889380262467,-0.0245338863018735,-1.02246733543377,-0.133934130674145,0.23647325311636,0.154262267605848,-0.0275672036447181,-0.253437500734208,-1.0330373399018,0.001089488075889,0.177203011544633,0.187022309129917,-0.118309260311752,0.0062604864940851,stand
59.48,-0.521156971102337,0.0722178599065752,0.872105558878907,0.111202720515583,-0.115739932176731,-0.0006945243360142,-1.06853034257105,0.0307439162656766,-0.0990015968280813,0.166789465212756,-0.199297988957292,-0.0272121648334623,-1.02728255817226,-0.116872113774041,0.23724661818818,0.162776469775428,-0.0295112997358361,-0.246933535758167,-1.03118174145715,0.0047786094899199,0.19472339836702,0.18922582128502,-0.0848158527413044,0.0137739556699647,stand
59.485,-0.517973488861337,0.0772617741934768,0.876565603662015,0.110049621537523,-0.0930258669790017,-0.0052295433987644,-1.07195458503222,0.0333253806872704,-0.0840941146415582,0.172116961330126,-0.196922168847215,-0.0299777313097223,-1.02974254691156,-0.10032974979502,0.237924530795095,0.169384504343628,-0.0314531683916633,-0.23558368302064,-1.0286734996093,0.0071020741737385,0.205178828220304,0.194118558580756,-0.0479238813189029,0.0207854173843574,stand
59.49,-0.514820095517636,0.0822466045944751,0.880119580960381,0.107211131617255,-0.0695843086811744,-0.0093902623220443,-1.07268521968177,0.0359014873026272,-0.0700556858461333,0.175081116752712,-0.191882450711812,-0.0327719104769787,-1.02996955785534,-0.0846472169350028,0.238563330790569,0.173842447733151,-0.0333748826956102,-0.21986578006187,-1.02562686687412,0.0079752284412002,0.208793514650093,0.201132761810506,-0.0089090985939781,0.0273975470856203,stand
59.495,-0.511833834831796,0.0869178450712265,0.882948998777524,0.102680042383196,-0.0461948940121535,-0.0131165960281622,-1.0709554860443,0.038367285050607,-0.0571369765513831,0.175518828848918,-0.184355892495889,-0.0355453893231611,-1.02815423679194,-0.0701615228465797,0.239205666201874,0.17593322647556,-0.0352690381692676,-0.200355956862835,-1.02218120069467,0.0074247128195122,0.205916935337119,0.209672835397507,0.030968085037676,0.0337139592475709,stand
59.5,-0.509138808453127,0.091079160466856,0.885217713004496,0.0964516254899875,-0.0236285872484929,-0.0164091573346699,-1.06705374976528,0.0406409120582194,-0.0455862107408145,0.173309502524951,-0.174581058635775,-0.0382578613468988,-1.024537021278,-0.0572016103703323,0.239880140830881,0.175478293806964,-0.0371364043095044,-0.177723873629831,-1.01848920256779,0.0055609194228907,0.197040370541785,0.219129167457275,0.0704775896831586,0.0398265208951366,stand
59.505,-0.506822314891872,0.0946231888066356,0.887030438169412,0.0885472209945828,-0.0026182201246611,-0.0193041917784077,-1.06131879786416,0.0426429998602632,-0.0356544219750335,0.168397083706288,-0.16285379056287,-0.0408752350293762,-1.01940194036562,-0.0460493658906928,0.240617510624894,0.17236152921176,-0.0389805510260014,-0.152714662294653,-1.01470155853993,0.0025782962177949,0.182816089619042,0.228898128769772,0.108456612709904,0.0458061147945463,stand
59.51,-0.504923003159325,0.0975135161014315,0.888408770667309,0.0790650373642051,0.0161896850462143,-0.0218389116162125,-1.05412688728858,0.0442917392061882,-0.027581308341009,0.160844163312979,-0.149518231287999,-0.0433631481637203,-1.01306614964509,-0.0369113363473337,0.241451860169357,0.16658536434765,-0.0407977574721849,-0.12612313964575,-1.01095742538892,-0.0012492668149821,0.164040411786076,0.238414007047993,0.143841253391731,0.0516845431356323,stand
59.515,-0.503446204134577,0.0997470382000647,0.889317104269253,0.0682054246816966,0.0322782501210832,-0.0240412495476304,-1.04585865600425,0.0455322740119492,-0.0215531514033473,0.150861541842081,-0.134956397834423,-0.0456829728971329,-1.00585178680199,-0.0299460441623231,0.24240272357643,0.158302639559135,-0.0425703122722893,-0.0987649793661603,-1.00737551007839,-0.0056134541684912,0.14163647107127,0.247170409021634,0.175700981633569,0.057446552665458,stand
59.52,-0.502379099085404,0.101342047965873,0.889693088493588,0.0562432248617007,0.0452769507672868,-0.0259416903144421,-1.03687001655871,0.0463601725335995,-0.0176747862232783,0.138775279191017,-0.11957842058387,-0.0477939510149531,-0.998063032914926,-0.0252930713680528,0.24346103925125,0.147786071766421,-0.0442686328503283,-0.071449951554929,-1.0040566003783,-0.0102040500133063,0.116579896583422,0.254721267969845,0.203276405233002,0.0630402438994804,stand
59.525,-0.501694668577763,0.102346434582748,0.889459039978239,0.043488585135063,0.0549673622178651,-0.0275804772824701,-1.02748264398333,0.0468154875842154,-0.0159709329710457,0.124976415828634,-0.103813692198703,-0.0496573298291166,-0.98997971731104,-0.023054283571449,0.244592905931686,0.135379435947377,-0.0458570708489783,-0.0449642696468215,-1.00108528333912,-0.0147167066317765,0.089827621377943,0.26067690546552,0.225987326183905,0.0683873812223465,stand
59.53,-0.501369381571316,0.102836277724251,0.888555679150988,0.030266073341163,0.0612814008686111,-0.0290062985638362,-1.01798604422871,0.0469644678747544,-0.0163911623505356,0.109890700584314,-0.0880968601281778,-0.051237707772819,-0.981854724304113,-0.0232479089066104,0.245759848221774,0.121468616994355,-0.0472967805667678,-0.0200476156201829,-0.998505940755783,-0.0188780621139097,0.0623794521328337,0.264706563027668,0.243437562683124,0.0733911059099476,stand
59.535,-0.50139693319845,0.1029001710596,0.886978258312106,0.0169060514486186,0.0642768399760398,-0.0302747009109334,-1.00864201714925,0.046878497940829,-0.0188109040677314,0.093962559808002,-0.0728435188561863,-0.052501218923175,-0.973911914177092,-0.0257826931608029,0.246938066362309,0.106467995450149,-0.0485447695498009,0.0026501759099344,-0.996305498186326,-0.0224711744397966,0.0353272277252171,0.266548661669393,0.255458896896071,0.0779488047871319,stand
59.54,-0.50176665408071,0.102622087079275,0.884761377483912,0.0037359434860471,0.0641091294522955,-0.0314442167677557,-0.999685558387432,0.0466162804359086,-0.0230366884203634,0.0776397622076349,-0.0584271412889354,-0.0534150383713501,-0.966347478109642,-0.0304718047399596,0.248115991128283,0.0908069433852069,-0.0495545034182045,0.0226068636910748,-0.994439248388278,-0.0253303867558524,0.0097232559470029,0.266020086605103,0.262142674083525,0.0819635729498605,stand
59.545,-0.502438978878469,0.102073023355759,0.881950740553853,-0.0089346156929917,0.0610230085751874,-0.0325708694679351,-0.991322108346154,0.0462187519069437,-0.0288151733701845,0.0613537104219292,-0.0451682663456947,-0.0539509182860038,-0.95933110709282,-0.0370574655503588,0.249280152701122,0.0749098690306075,-0.0502813278187016,0.0394362832610837,-0.992863798569599,-0.027328424786777,-0.0135755640152601,0.263015096168525,0.263809175441879,0.0853496364727809,stand
59.55,-0.503342235457905,0.101311900010034,0.87860145453847,-0.0208295038283657,0.0553469051488766,-0.0337038231569593,-0.983727039831492,0.0457055053406881,-0.0358502794825585,0.0455002853576216,-0.0333292718990986,-0.0540897565807668,-0.953006420898419,-0.045224104397533,0.25041177224139,0.0591759240334398,-0.0506889363299975,0.052884335057999,-0.991547650020974,-0.0283680417249864,-0.0339592557543266,0.257499587293121,0.260952275457709,0.0880360441141602,stand
59.555,-0.504361290155954,0.10039489187214,0.874763090125837,-0.0317101165696722,0.0474819397362371,-0.0348763457682438,-0.977045488640898,0.0450612894687003,-0.0438315710927106,0.0304338477248142,-0.0231123975231221,-0.053824784587432,-0.947490800342564,-0.0546149480342362,0.25148867334845,0.043971321911926,-0.0507537914507496,0.0628183902309482,-0.990480167620485,-0.0283703882402978,-0.0510982721995804,0.24950801675448,0.254177543506544,0.0899649399362595,stand
59.56,-0.505333856093995,0.0993894924872834,0.870460950967126,-0.0413647779031777,0.0379014625420217,-0.0360829058109264,-0.971386868149032,0.0442339786454298,-0.0524541256140346,0.0164763005527163,-0.0146660826816366,-0.0531646377316618,-0.942869584677558,-0.0648459086314871,0.252481240941022,0.0296356187311301,-0.050468937210524,0.0692002025642195,-0.989672669215841,-0.02729029330391,-0.0649260395697901,0.239137654574325,0.244119783830605,0.0910846458485415,stand
59.565,-0.506102773033703,0.0983622610371099,0.865730524223858,-0.0495974788885419,0.0271449029578104,-0.0372552273142613,-0.966821794081909,0.0431603458137449,-0.0614192133920502,0.0039258425756686,-0.0080875089678846,-0.0521355195147214,-0.939190579911227,-0.0754950015626156,0.25335329411133,0.0164883642058516,-0.0498463562540756,0.0720683617981952,-0.989131462976201,-0.025159328677185,-0.0754935066172818,0.226539157274503,0.23138759678136,0.0913547594819669,stand
