Header;foot_Accel_X;foot_Accel_Y;foot_Accel_Z;foot_Gyro_X;foot_Gyro_Y;foot_Gyro_Z;shank_Accel_X;shank_Accel_Y;shank_Accel_Z;shank_Gyro_X;shank_Gyro_Y;shank_Gyro_Z;thigh_Accel_X;thigh_Accel_Y;thigh_Accel_Z;thigh_Gyro_X;thigh_Gyro_Y;thigh_Gyro_Z;trunk_Accel_X;trunk_Accel_Y;trunk_Accel_Z;trunk_Gyro_X;trunk_Gyro_Y;trunk_Gyro_Z;Label;
0;-0.256073907;-0.028851995;0.973405123;0.104436748;0.012774539;0.036495491;-0.999980381;-0.05863516;0.069279754;0.091158987;0.012273866;-0.007648649;-0.999898091;-0.050895225;-0.079566831;0.091225926;-0.032048465;0.006793431;-0.965442877;-0.0419394;0.248789979;-0.032941982;0.000310696;0.014555676;stand;0
0.1;-0.260676104;-0.050799271;0.959896937;0.095080052;0.00383271;0.03179699;-0.995309082;-0.046447065;0.079527695;0.087801749;0.005726434;-0.003175737;-0.995150305;-0.056424291;-0.084362605;0.087237659;-0.00418147;0.010441619;-0.956547749;-0.044253884;0.24793349;-0.000751367;-0.060508812;0.01224487;stand;0
0.2;-0.257020586;-0.046924067;0.968449715;0.16231152;0.027699831;0.045270743;-0.991953369;-0.059644825;0.069845557;0.146628622;0.014610085;-0.016163164;-0.989554643;-0.042365644;-0.071182119;0.147377341;-0.04351172;0.006322651;-1.001247507;-0.046832665;0.221470833;-0.005829833;0.005243189;0.000944592;stand;0
0.3;-0.248427163;-0.093729661;0.95486669;0.096204497;0.015664351;0.029922449;-0.998302474;-0.041688072;0.078943606;0.082056757;0.005776461;-0.011904711;-0.998629556;-0.069040528;-0.09075054;0.082910904;-0.042374755;0.000282449;-0.951530096;-0.050862578;0.249661704;-0.028760539;0.041676253;0.011482917;stand;0
0.4;-0.255575336;-0.063899032;0.97026625;0.000721914;0.008976635;0.028680063;-0.99432025;-0.060933415;0.074320071;-0.022568358;-0.000309979;-0.001799328;-0.995912391;-0.045967421;-0.05461202;-0.022069241;-0.012563729;-0.00508086;-0.972557611;-0.043913979;0.239884645;-0.019020777;0.003283952;-0.011625248;stand;0
0.5;-0.246611047;-0.087994345;0.960571952;-0.044663251;-0.011150907;-0.012534327;-0.997119256;-0.053182223;0.074095198;-0.047847069;-0.010636644;-0.00269763;-0.996849426;-0.063340815;-0.079141374;-0.046967919;0.002846804;-0.009538801;-0.964578447;-0.044463269;0.245755191;-0.000465312;0.001240004;0.003330607;stand;0
0.6;-0.239155749;-0.101727628;0.959807776;-0.103676675;-0.02234242;-0.03743976;-1.005758628;-0.059400366;0.059048188;-0.098326787;-0.026499223;-0.000919644;-1.001014949;-0.079919393;-0.10976606;-0.09713188;0.037971038;-0.015402132;-0.963914193;-0.044739606;0.246041131;-0.001770426;-0.024549449;-0.001865412;stand;0
0.7;-0.294305269;0.027530412;0.985055116;0.088048632;0.021836774;0.027742458;-0.975462771;-0.058156289;0.107161389;0.07628197;0.025782074;-0.008920245;-0.988997422;0.00128333;0.024542573;0.076817976;-0.036309962;0.002144472;-0.980071541;-0.056188347;0.237870866;-0.001648886;-0.003368035;-0.014007928;stand;0
0.8;-0.166681704;-0.241093452;0.907324814;-0.599215265;-0.153664017;-0.206177034;-1.042191733;-0.057620227;0.003500149;-0.544785802;-0.155967297;0.026465613;-1.011872176;-0.202225262;-0.299212194;-0.54189373;0.192136507;-0.062744179;-0.957465515;-0.02958828;0.236657989;0.00323715;-0.013254662;0.035299239;stand;0
0.9;-0.38357153;0.26430077;1.008712942;-0.250351543;-0.048589778;-0.107235558;-0.925544363;-0.067503181;0.196346809;-0.207797129;-0.049016891;0.013728108;-0.981075682;0.108267573;0.212357552;-0.206710908;0.075048286;-0.024973972;-0.979079298;-0.063870048;0.239877336;0.00408517;-0.009264695;-0.015722624;stand;0
1;-0.218019907;-0.126083009;0.933603016;1.040698624;0.216549843;0.391537149;-1.019558735;-0.063244427;0.041674326;0.903181533;0.244629589;-0.056446477;-1.004869657;-0.138658624;-0.186288525;0.900136017;-0.266783742;0.093870861;-0.950918995;-0.036843137;0.246511527;0.006427403;-0.056298759;-0.037511932;stand;0
1.1;-0.187997825;-0.208869088;0.918462083;-0.760690019;-0.182756603;-0.267961286;-1.033020086;-0.058340987;0.018260515;-0.675577557;-0.157284509;0.042816645;-1.00706846;-0.172354521;-0.255642209;-0.673716156;0.22534759;-0.065708203;-0.973224687;-0.053547749;0.230366702;0.052960019;-0.113693;0.01807295;stand;0
1.2;-0.315559985;0.161167378;0.969619239;-1.251423291;-0.253693629;-0.444886145;-0.971502251;-0.067124396;0.117564727;-1.055045372;-0.290080941;0.097763882;-0.988686988;-0.007552349;-0.008339893;-1.052198009;0.356071876;-0.125088776;-0.981515904;-0.069238056;0.223449052;-0.062803045;-0.01880273;0.030906953;stand;0
1.3;-0.376270465;0.271914057;0.96672205;0.017737103;0.002443191;-0.021456182;-0.933076875;-0.061308589;0.202264321;0.027421006;0.014613332;-0.008206377;-0.980479419;0.068457024;0.095253104;0.028632856;-0.00551276;-0.001445546;-0.984857688;-0.043541915;0.219712927;-0.141205124;-0.036028678;0.045078394;stand;0
1.4;-0.195465455;-0.092499223;0.901513455;2.12831352;0.469875943;0.730476774;-1.038615662;-0.071340152;0.008266052;1.869457192;0.478516029;-0.131589019;-1.020993977;-0.200851801;-0.244220246;1.862419006;-0.603060606;0.216840838;-0.989503892;-0.040551794;0.204320267;-0.115833074;0.056536196;0.030586604;stand;0
1.5;-0.252505581;-0.076037333;0.958072343;-0.375011572;-0.071290524;-0.108679476;-0.991042732;-0.042953506;0.080280598;-0.353708417;-0.066685485;0.017948667;-0.994196769;-0.048666722;-0.060921033;-0.352723554;0.07082609;-0.032049028;-0.954402918;-0.035629939;0.226557888;-0.025684347;0.018047879;0.003514727;stand;0
1.6;-0.246550027;-0.086818511;0.966498449;0.113585437;0.010018262;0.055541744;-1.001618572;-0.066463703;0.063735645;0.081006858;0.022871333;-0.011987196;-0.999680312;-0.065426013;-0.082350599;0.081886936;0.007787679;-8.55E-05;-0.962134333;-0.042499675;0.23109354;0.01275327;-0.053092985;-0.003377138;stand;0
1.7;-0.256172642;-0.071311291;0.960878695;-0.081665525;-0.015385624;-0.020000651;-0.994593788;-0.049514052;0.071357792;-0.09005161;-0.003248007;-0.005221946;-0.992328045;-0.05558205;-0.084858755;-0.08831112;0.016948211;-0.018393878;-0.984805554;-0.056142556;0.222827151;-0.005879906;-0.040682494;0.000171249;stand;0
1.8;-0.254219609;-0.065337995;0.967579591;-0.004457208;-0.016163952;-0.003830173;-0.997619466;-0.067419249;0.05533628;-0.011459264;-0.033909663;-0.009300097;-0.99389932;-0.058390951;-0.088045905;-0.009943871;0.010466602;-0.010853762;-0.984730552;-0.042102157;0.211032884;0.022922307;0.002462235;-0.010933949;stand;0
1.9;-0.253281267;-0.085475725;0.958940495;-0.012068128;-0.007566161;0.003716952;-0.994992404;-0.056607744;0.083262837;-0.018901413;-0.043686358;-0.003128412;-0.995700999;-0.072272379;-0.084481436;-0.018188806;0.009133144;-0.006097402;-0.968553429;-0.061964151;0.220465839;0.028399452;0.034524784;-0.00724234;stand;0
2;-0.269849282;-0.029664596;0.973601844;-0.007577276;0.011626497;-0.006832858;-0.984784594;-0.066924703;0.09806373;-0.005101361;0.022021381;-0.000671767;-0.993915891;-0.039135914;-0.023451168;-0.004909038;-0.021497028;-0.001686494;-0.977662941;-0.054924482;0.212131537;-0.022761386;-0.004955468;-0.007986774;stand;1
2.1;-0.226562419;-0.144616197;0.945819624;0.122690049;0.017055331;0.033732646;-1.01404324;-0.05826909;0.045532108;0.118802644;0.017212269;-0.004078002;-1.002314068;-0.108167254;-0.160138797;0.118094836;-0.023171229;0.013636327;-0.970382977;-0.037561204;0.221190247;0.008360434;0.021025824;0.009401425;stand;1
2.2;-0.270743441;-0.002149492;0.96391213;-0.882096316;-0.175672107;-0.299104913;-0.988156757;-0.057726812;0.086711409;-0.78706667;-0.195254936;0.053774775;-0.991687923;-0.044665365;-0.060866921;-0.784704013;0.239081803;-0.080956173;-0.979181606;-0.056751843;0.222595996;0.016082842;-0.005839074;0.004152875;stand;1
2.3;-0.292620087;0.049421168;0.975946955;0.422106283;0.083074972;0.131960054;-0.984316235;-0.063346143;0.10173663;0.378204705;0.067106556;-0.033968303;-0.994191488;-0.026070026;-0.037390401;0.378021814;-0.083333899;0.036283133;-0.966373982;-0.045088597;0.227496934;-0.015100697;0.01109646;-0.008701472;stand;1
2.4;-0.259897095;-0.052211779;0.957639596;0.274317969;0.060423034;0.118515162;-0.985425795;-0.061460446;0.106879205;0.228803313;0.085187607;-0.01235947;-0.98923781;-0.067145127;-0.06648296;0.227607098;-0.114746075;0.026410327;-0.980734371;-0.047353406;0.217543925;0.015522901;-0.001455605;-0.021717767;stand;1
2.5;-0.237798621;-0.096608488;0.962928582;0.182967111;0.057738635;0.041216838;-1.009958954;-0.062011159;0.044327607;0.176885633;0.071357495;-0.013926506;-1.002758357;-0.078686282;-0.122882311;0.17697158;-0.075272117;0.01263062;-0.972920643;-0.051559667;0.222122337;-0.005913765;0.012613879;-0.016245756;stand;1
2.6;-0.258431297;-0.064062547;0.957636282;-0.395903113;-0.09609846;-0.138677035;-0.990440671;-0.064223245;0.086664841;-0.348938046;-0.120958715;0.02435689;-0.994310968;-0.070329836;-0.069645758;-0.348464943;0.155576248;-0.030891666;-0.974851245;-0.042523303;0.215217313;-0.007177848;0.00101523;0.020118403;stand;1
2.7;-0.257182214;-0.052841814;0.967371329;0.329524878;0.076541112;0.1188995;-0.997986285;-0.058596035;0.07293217;0.301397534;0.10511695;-0.0066493;-0.997886362;-0.053484825;-0.078577786;0.298642887;-0.122386551;0.041060595;-0.97334733;-0.045608908;0.22486757;0.025788848;0.046704496;0.003005142;stand;1
2.8;-0.256082479;-0.075479356;0.962952034;-0.020175835;0.005196164;-0.001085662;-0.995105078;-0.054077547;0.074008825;-0.018937681;0.000822807;0.004052401;-0.994730343;-0.063932134;-0.084035216;-0.019334076;0.032828214;0.00116003;-0.968750285;-0.050837355;0.231653006;-0.016539464;-0.012535845;0.004036748;stand;1
2.9;-0.246877623;-0.076430054;0.963437482;0.005321183;0.004770462;0.018044707;-0.996176627;-0.063472442;0.069810512;-0.001711518;0.00280779;0.005453855;-0.994571986;-0.061305614;-0.080942171;-0.002514579;0.004705518;0.005133237;-0.983504974;-0.053103067;0.221210183;0.009836479;0.026618857;-0.021153011;stand;1
3;-0.256437208;-0.067059634;0.964857913;-0.064302708;-0.013085128;0.018148138;-0.996219539;-0.05757862;0.075594667;-0.074289728;-0.011990502;0.017878764;-0.996929191;-0.059679894;-0.077207274;-0.076153083;0.027497535;0.006337881;-0.965560167;-0.03817376;0.231576164;0.008827647;0.029764706;-0.005347528;stand;1
3.1;-0.255558035;-0.057893301;0.967290882;0.035497963;0.014527943;0.010330671;-0.991212167;-0.057121511;0.076464656;0.041016464;0.021737004;0.005613609;-0.992060203;-0.04709168;-0.0672589;0.03965843;0.001441305;0.011851559;-0.967580159;-0.049189192;0.235545184;0.007674357;0.008224956;-0.012956656;stand;1
3.2;-0.240202453;-0.08409708;0.963864095;0.007584354;0.000375042;-0.001368684;-1.002401379;-0.056827878;0.066269971;0.014589667;0.015781568;0.005032531;-0.999891964;-0.064805592;-0.095314238;0.013655407;0.009202499;0.007196418;-0.967618288;-0.035754037;0.239424849;-0.002600797;-0.015812579;0.005328334;stand;1
3.3;-0.259427289;-0.059365916;0.964985786;-0.089897165;-0.037049517;-0.06733124;-0.995738979;-0.054844407;0.065833734;-0.056977676;-0.006660371;0.002225916;-0.993256583;-0.052330858;-0.087976971;-0.0566442;0.047514621;-0.006560847;-0.977283429;-0.045347565;0.227727024;0.007321298;-0.017253982;0.00522893;stand;1
3.4;-0.259047384;-0.058727694;0.963632456;0.001910427;0.006793451;-0.005183348;-0.990141194;-0.054883292;0.076902725;0.007242162;0.019180177;0.001464479;-0.989498416;-0.053024595;-0.0785354;0.006923584;-0.02541621;0.002571396;-0.972184528;-0.049680431;0.236205401;0.008099004;0.022940141;0.009760885;stand;1
3.5;-0.250982734;-0.066866596;0.964192468;0.013620208;0.010881433;0.001557835;-1.000048383;-0.052775532;0.063084802;0.011981575;0.006104938;-0.00371817;-0.997713192;-0.058325765;-0.094502292;0.012407115;0.001074356;-0.00185868;-0.968251874;-0.045010386;0.232224561;-0.009961444;0.003157201;-0.009442032;stand;1
3.6;-0.261415817;-0.047114629;0.970846353;0.010792685;0.002592174;0.007254838;-0.995395262;-0.058837674;0.070318571;0.017649152;0.006677274;0.010046168;-0.996317554;-0.050093776;-0.070729079;0.015924795;-0.020703703;0.012543969;-0.974985791;-0.047723579;0.232540913;0.003855449;0.039214618;0.021255927;stand;1
3.7;-0.251015449;-0.067929022;0.962422954;0.024053367;-0.002424442;0.011420358;-0.996231128;-0.051367038;0.068307255;0.02314857;0.008804199;0.003690084;-0.99480687;-0.054224439;-0.084397069;0.022338717;-0.000370439;0.007105285;-0.96554262;-0.054938862;0.241887577;-0.009168678;-0.009639069;-0.001824161;stand;1
3.8;-0.252992019;-0.07115314;0.964110783;0.081644509;0.018369851;0.028326521;-0.995290048;-0.054570052;0.063974806;0.075719344;0.022497216;-0.00100309;-0.994138644;-0.05483564;-0.082294181;0.075046368;-0.015803452;0.010126301;-0.968468806;-0.040638522;0.231151144;-0.016758657;-0.002340608;-0.010305131;stand;1
3.9;-0.241030437;-0.103642857;0.956428842;0.055562191;0.015905274;0.015545521;-1.002558079;-0.054021979;0.052826488;0.053591307;0.007320827;-0.00241681;-0.99553906;-0.069333108;-0.114077072;0.053376523;0.005694986;0.00536012;-0.97001112;-0.042501188;0.239642424;-0.009793252;-0.017691248;0.006238394;stand;1
4;-0.279547199;0.029771862;0.967447802;-1.023954836;-0.205997289;-0.360578514;-0.981914147;-0.058796891;0.096819742;-0.902552876;-0.219643063;0.057345638;-0.996387071;-0.031405986;-0.022460692;-0.899345024;0.26664179;-0.09667551;-0.979451784;-0.052779587;0.231458062;0.001832864;-0.005983669;0.002053183;stand;2
4.1;-0.237202068;-0.07205437;0.943359027;1.031950957;0.220067863;0.370278164;-1.010680108;-0.056944033;0.049032969;0.912216158;0.227190655;-0.048708519;-1.005126702;-0.097664261;-0.142960368;0.907679919;-0.273740304;0.1047822;-0.967499079;-0.035381186;0.230905204;-0.006564331;0.009213777;-0.01812438;stand;2
4.2;-0.214442484;-0.098968278;0.923827695;-1.349323477;-0.308746436;-0.497441723;-1.019510765;-0.055279464;0.030183001;-1.16742954;-0.299836622;0.075017021;-1.000427391;-0.137891866;-0.210947588;-1.162387756;0.384448665;-0.132905496;-0.972082883;-0.056479201;0.230216872;0.012726299;-0.009534148;0.024403347;stand;2
4.3;-0.342826148;0.215799434;0.979502267;-0.357379805;-0.066505456;-0.132891048;-0.956261978;-0.058297815;0.149955273;-0.296035754;-0.076729828;0.027282013;-0.985942115;0.035825392;0.034579157;-0.294779818;0.091098256;-0.038456377;-0.976819;-0.037912356;0.232423535;-0.008797607;0.032828693;-0.004394111;stand;2
4.4;-0.280942979;0.085200089;0.951588692;0.096661629;0.023979289;0.077583063;-0.993448179;-0.053683181;0.094749167;0.06090034;0.003090998;0.004792653;-0.988641005;-0.058443648;-0.136394742;0.058251787;-0.006419375;0.018398459;-0.967855576;-0.054322026;0.239409951;0.004232929;0.012627661;0.007064702;stand;2
4.5;-0.30651401;0.123359596;0.968488157;0.932887126;0.201151872;0.271875606;-0.975779046;-0.05772388;0.110887554;0.833872952;0.229461025;-0.0708843;-0.989581597;-0.012401031;-0.028856566;0.83113638;-0.271591164;0.098328545;-0.966670811;-0.030759531;0.23518646;-0.005164938;0.012805809;-0.001093158;stand;2
4.6;-0.216314829;-0.111112663;0.949960403;0.283233465;0.068246816;0.092339643;-1.025324841;-0.059500401;0.025082497;0.262626931;0.059798934;-0.00908545;-1.004817742;-0.114006594;-0.206197392;0.260383446;-0.068656078;0.035646125;-0.983180535;-0.072109882;0.23878245;0.015158003;0.026516357;0.021594887;stand;2
4.7;-0.258297252;-0.066593871;0.948755286;0.094954085;-0.000797291;0.026040017;-0.993582438;-0.037539647;0.080968115;0.095072515;0.010600824;0.000555491;-0.990207938;-0.067288284;-0.112939172;0.093714395;-0.022569594;0.016154159;-0.951424835;-0.025435994;0.248365495;0.034830198;0.025438929;-0.026897703;stand;2
4.8;-0.281599406;0.036099904;0.976642237;-0.471929783;-0.081631716;-0.140146077;-0.967487817;-0.068723027;0.145864601;-0.432687976;-0.046520929;0.033110369;-0.99186967;-0.015764534;0.041681011;-0.431888841;0.089695517;-0.042072258;-0.975555393;-0.056579428;0.241169184;0.016915766;-0.042905176;-0.004719244;stand;2
4.9;-0.251033342;-0.054696197;0.963174768;1.003147913;0.19184215;0.349573868;-1.025768664;-0.058895378;-0.068752758;0.910118225;0.269206555;-0.016084869;-1.00558608;-0.078338256;-0.218207269;0.904378341;-0.367181323;0.106612801;-0.978355626;-0.052586011;0.230369627;0.094023073;0.090039301;0.003760179;stand;2
5;-0.218853609;-0.168951414;0.936926837;-0.252237294;-0.049072152;-0.083638436;-1.000664858;-0.025719396;0.106562956;-0.211173677;-0.156206815;0.021051305;-1.002594297;-0.080327059;-0.078666421;-0.211763251;0.200452527;-0.009703197;-0.93897507;-0.059592745;0.268871122;-0.027085499;-0.033162488;-0.005973732;stand;2
5.1;-0.268289429;-0.015906292;0.981891047;-0.084817965;-0.007061237;-0.041617867;-0.983716661;-0.058101119;0.070297139;-0.073132607;0.020954908;-0.001295774;-0.987615319;-0.014002346;-0.032060844;-0.072100486;0.019538521;-0.012298573;-0.976430553;-0.041014064;0.245649878;-0.050436791;-0.086298521;0.008928987;stand;2
5.2;-0.247836799;-0.09374791;0.954067799;0.050891945;0.014161466;0.035293353;-1.000122617;-0.04048686;0.053919849;0.067192717;0.008920627;-0.001875871;-0.993823312;-0.060980442;-0.114796665;0.066761887;-0.034643832;0.007870699;-0.976523876;-0.049903144;0.228949335;0.006397536;-0.005760131;0.00071315;stand;2
5.3;-0.247810976;-0.057162899;0.97316281;-0.02006247;-0.001434564;0.023738182;-1.000916121;-0.049031106;0.05576796;-0.084548215;-0.036803848;0.003954232;-0.999661915;-0.039529985;-0.079203445;0.011430078;0.040304938;-0.001215397;-0.962500668;-0.045655954;0.249861377;-0.012101385;0.008820732;0.006812677;stand;2
5.4;-0.254637002;-0.062849943;0.966571081;-0.018477746;0.000516223;0.02501107;-0.995728665;-0.047683324;0.06990428;0.027764322;-0.010079223;-0.007559476;-0.995240115;-0.042653311;-0.073833612;0.016102068;0.040272298;-0.001158387;-0.970305419;-0.041141401;0.235178262;-0.010964454;0.01210246;0.008894511;stand;2
5.5;-0.254595435;-0.082117088;0.954840656;-0.023978123;-0.001844673;0.020347247;-0.995697914;-0.037888189;0.07053829;-0.071084737;-0.030717289;0.003907293;-0.992663902;-0.057418883;-0.099700106;0.008984138;0.039813516;-0.001202402;-0.972758561;-0.019525744;0.275484197;-0.000428369;0.025531981;0.000193603;stand;2
5.6;-0.257079357;-0.044357551;0.973724918;-0.026270368;-0.001490225;0.019209157;-0.992749616;-0.058527974;0.073657387;-0.03328532;-3.02113E-05;-0.000987539;-0.993896405;-0.041095075;-0.061003201;0.000770822;0.036016422;6.67E-03;-0.968253913;-0.021600082;0.270499464;-0.006923404;0.028133495;-0.014109286;stand;2
5.7;-0.245336427;-0.067165164;0.968885547;-0.020380927;-0.002603257;0.021231416;-1.004781809;-0.050982203;0.061228099;0.014330275;-0.023418788;-0.009210398;-1.005098939;-0.05292939;-0.083699553;0.000433945;0.04040341;0.002924441;-0.968582523;-0.023655332;0.263781622;-0.048861462;-0.044278557;-0.006937818;stand;2
5.8;-0.253936353;-0.058602758;0.963996236;-0.023926536;-0.003531862;0.019391678;-0.99560961;-0.050460428;0.065991256;0.046643239;-0.001281375;-0.006919275;-0.991534444;-0.048090001;-0.088943582;0.00828657;0.039529634;0.003541636;-0.975023352;-0.027483262;0.286137341;-0.038831301;0.026476263;-0.008975551;stand;2
5.9;-0.256736069;-0.069466836;0.960984064;-0.025356819;-0.004261297;0.017857954;-0.991391437;-0.046081539;0.077473666;0.013295886;-0.029156875;-0.003780484;-0.992245465;-0.050569384;-0.075945101;0.013191525;0.041495123;0.006449525;-0.973688276;-0.027423295;0.272902165;-0.070783527;0.024002979;-0.006901337;stand;2
6;-0.257203188;-0.063838764;0.966437693;-0.024336309;-0.002407119;0.020684101;-0.996463054;-0.050090146;0.078165596;-0.002045041;-0.016184915;-0.006562796;-0.99710168;-0.047001407;-0.071645157;0.028639197;0.047720413;0.00515327;-0.970612537;-0.032700006;0.270541641;-0.049968072;0.001877825;-0.000383959;stand;3
6.1;-0.265632668;-0.05857224;0.967054481;-0.025892288;-0.001496905;0.020360544;-0.994379687;-0.045211421;0.080375782;0.05751708;-0.001527981;-0.006448808;-0.996364938;-0.044565284;-0.069249446;0.018980701;0.048056972;0.007509707;-0.970571873;-0.034327562;0.266262567;-0.062235448;-0.042774598;0.005807922;stand;3
6.2;-0.240739097;-0.088102675;0.960735399;-0.020589374;-0.004024552;0.020087016;-0.993987302;-0.052980269;0.078334171;-0.00384673;-0.004521086;0.004001167;-0.994310095;-0.055487111;-0.076304602;0.002285639;0.040576449;0.011069165;-0.970594149;-0.039329017;0.276608852;-0.050454425;-0.071563092;0.002455727;stand;3
6.3;-0.25227823;-0.090102524;0.966302279;-0.021381982;-0.000394901;0.022997178;-0.997464437;-0.055917793;0.075472124;0.161433895;0.034909037;-0.017684254;-0.997794849;-0.051657505;-0.069639337;-0.012330287;0.038937651;0.020452353;-0.965394734;-0.036353562;0.294390714;-0.030032915;-0.094077096;0.007421864;stand;3
6.4;-0.438195107;0.177253803;0.806291609;-0.017209984;6.6421E-05;0.02572371;-0.997609994;-0.050431108;0.07317966;-0.019508319;0.005604271;-0.003336444;-0.99678201;-0.058442876;-0.081414163;-0.002259237;0.045052385;0.010721817;-0.961800431;-0.036715938;0.306883935;-0.028681522;-0.065185965;0.015735509;stand;3
6.5;-0.522890746;0.302840119;0.743625922;-0.018363087;-0.002896791;0.022691808;-0.992567304;-0.055441669;0.070342139;0.008613064;0.005685494;-0.003929342;-0.99257297;-0.050714004;-0.069796564;0.019781655;0.045345849;0.015471999;-0.961172274;-0.039939183;0.305142112;-0.058428054;0.000169975;0.013778601;stand;3
6.6;-0.522292399;0.30241698;0.742815021;-0.018806414;-0.001508057;0.022669911;-0.997964802;-0.044372579;0.075993573;-0.073408394;-0.008903983;0.013427225;-0.998416557;-0.056545767;-0.078748735;0.009703708;0.037117621;0.014802425;-0.95853698;-0.037487742;0.305287564;-0.034242492;0.003097658;0.002093078;stand;3
6.7;-0.522618466;0.303757413;0.743446482;-0.019469337;-0.000372124;0.023200121;-1.001086475;-0.05913968;0.067663827;-0.008014515;-0.00048527;-0.002267676;-1.002093182;-0.036369955;-0.055291675;0.031309264;0.042138345;0.011707961;-0.961008493;-0.038289605;0.30630254;-0.039889384;0.003590978;0.006742975;stand;3
6.8;-0.52212731;0.302048263;0.742944747;-0.021799095;-0.000863234;0.022996095;-0.988168301;-0.04099361;0.080064492;0.050096475;-0.00140614;-0.003959;-0.986664229;-0.063573664;-0.090690346;0.010699207;0.037229327;0.013216328;-0.962996201;-0.039498644;0.311726278;-0.047841522;-0.001600976;0.013447627;stand;3
6.9;-0.522151615;0.302706693;0.742933645;-0.020154872;-0.002577825;0.024374484;-1.000571097;-0.055263179;0.071502887;-0.088674321;-0.013469367;0.006659659;-1.000074754;-0.051389796;-0.07430142;0.021099945;0.040644582;0.011009535;-0.960952843;-0.039559047;0.309526841;-0.039766867;-0.033305648;0.022229695;stand;3
7;-0.521817832;0.302513799;0.743614798;-0.01963825;-0.00208615;0.023767125;-0.996369228;-0.056718566;0.074572365;-0.026125421;0.000249024;0.000697252;-0.998212308;-0.050092226;-0.066500577;0.006646004;0.041199472;0.011485177;-0.959604951;-0.037000721;0.313134041;-0.034977237;-0.009150608;0.023571962;stand;3
7.1;-0.522214696;0.303448289;0.743352903;-0.018120048;0.000342408;0.008550545;-0.994231179;-0.049548095;0.074505949;-0.004832807;0.000558027;0.001907405;-0.991822913;-0.051723024;-0.082335546;0.015390791;0.040789409;0.00927403;-0.958328896;-0.038141182;0.314606114;-0.025153733;0.00935682;0.01704433;stand;3
7.2;-0.523312658;0.303833776;0.742756425;-0.017547577;-0.003210827;0.023900975;-0.996304746;-0.052401425;0.074370726;0.001048807;0.002133829;-0.006005291;-0.998005533;-0.05216976;-0.071188663;0.008401413;0.037456848;0.012767959;-0.960442309;-0.034634654;0.310299916;-0.003459938;0.012122421;0.009875625;stand;3
7.3;-0.522697514;0.304324361;0.743242625;-0.018049184;-0.000432363;0.026608621;-0.99386146;-0.049810482;0.077888125;-0.003091952;0.005337133;0.002536835;-0.994517495;-0.048859145;-0.070762367;0.01305553;0.036943538;0.018719133;-0.959125482;-0.038451155;0.32034237;0.010396832;0.04016511;0.003686668;stand;3
7.4;-0.522538683;0.303622461;0.742339373;-0.014909795;0.002057536;0.026465857;-0.996188448;-0.049946935;0.073518593;-0.000671754;0.011022748;0.000142641;-0.995948879;-0.051086245;-0.076823301;0.009939738;0.037877999;0.018510396;-0.965768501;-0.033814446;0.302438705;0.051139142;0.099446872;0.003232019;stand;3
7.5;-0.52261097;0.30392805;0.741507681;-0.020058693;0.000900329;0.025018827;-0.9971506;-0.053416172;0.070770988;0.017498369;0.010166715;0.000543393;-0.997039137;-0.052968796;-0.076754023;0.012628205;0.036515595;0.020405318;-0.96445476;-0.030961752;0.293002702;0.002766504;0.087705486;0.006995596;stand;3
7.6;-0.522662655;0.304423016;0.741779867;-0.016106458;0.000686666;0.027337216;-0.995073648;-0.048282756;0.071313091;-0.009786584;-0.000637702;0.004881338;-0.993899461;-0.051059625;-0.081587042;0.015542823;0.039107638;0.019493954;-0.956932996;-0.028859518;0.276431495;-0.073481218;-0.008874472;0.007519086;stand;3
7.7;-0.522948405;0.305381979;0.741714256;-0.01479591;0.000688535;0.028243258;-0.996053692;-0.047761226;0.077072613;-0.038633221;0.014236103;0.003240344;-0.996186117;-0.046087528;-0.07190978;0.005593495;0.043764832;0.011454958;-0.963358215;-0.030908678;0.30526325;-0.022327644;0.014040215;0.01713785;stand;3
7.8;-0.523455397;0.305817289;0.741721178;-0.020598233;9.02294E-05;0.024637002;-0.997946931;-0.051148019;0.06558111;-0.01294492;0.007746568;-0.008906118;-0.995546514;-0.047737443;-0.081132778;0.000367634;0.052764397;0.010006521;-0.967355366;-0.02661647;0.311708499;-0.110444043;0.179012922;0.011233281;stand;3
7.9;-0.521975233;0.304761506;0.742874961;-0.021071495;0.00102168;0.025918273;-0.999397605;-0.055689912;0.062426528;-0.016778079;-0.004369044;-0.011782052;-0.996267218;-0.061233601;-0.092418894;0.052647627;0.070496737;-0.001693865;-0.975924478;-0.029422151;0.262597554;-0.055449482;0.048928189;0.010886564;stand;3
8;-0.523519218;0.304335147;0.741186387;-0.022716702;-0.003558843;0.019822765;-0.992989142;-0.048179379;0.076196293;-0.113701066;-0.020871828;-0.021705699;-0.993912522;-0.041317551;-0.065532249;-0.023639324;0.051567212;0.013148803;-0.965713834;-0.034589426;0.266658355;-0.05089609;0.079718669;-0.014330252;stand;4
8.1;-0.523098047;0.304876371;0.741551424;-0.020234693;-0.000184643;0.019315002;-0.99997806;-0.054761237;0.07269054;-0.005679033;0.017159558;-0.041200171;-0.996911992;-0.04964423;-0.080496839;-0.03359922;0.06198808;0.024657835;-0.976065446;-0.036104638;0.279843994;-0.06253471;0.055580989;0.013229727;stand;4
8.2;-0.521234365;0.305102109;0.741212158;-0.033727495;-0.006434092;0.014562215;-0.993229312;-0.054628153;0.05617552;0.002667595;-0.009940072;-0.042154649;-0.981257723;-0.177261366;-0.014381619;0.011379659;0.089802897;-0.00450017;-0.97751389;-0.018776061;0.246557193;-0.080645204;0.022086908;0.054831571;stand;4
8.3;-0.521813001;0.302289022;0.742285862;-0.038905556;-0.010859016;0.008556413;-0.995188429;-0.068146691;0.075016892;0.031354266;-0.023655781;-0.054004666;-0.961053906;-0.252736781;-0.011119701;0.028878839;0.096612686;-0.010530241;-0.960177311;-0.032483142;0.272337823;-0.056069673;0.098364371;0.027091527;stand;4
8.4;-0.52179357;0.299552144;0.743384425;-0.032463784;-0.00745881;0.006511747;-1.001238091;-0.071357239;0.074743975;0.053629126;-0.007226492;-0.068490963;-0.959353687;-0.258801945;-0.011553934;-0.005285806;0.092690843;-0.004634957;-0.972370161;-0.03823559;0.264475555;-0.095614699;-0.009454307;0.010907051;stand;4
8.5;-0.522632772;0.297240214;0.743693011;-0.02687598;-0.00583939;0.00943347;-0.989210196;-0.07466956;0.079776701;-0.014419185;-0.005872405;-0.049226056;-0.962378958;-0.256861636;-0.024803962;-0.028958421;0.085860462;-0.00478587;-0.985280842;-0.038257185;0.236318957;-0.006055078;0.006989269;-0.02304674;stand;4
8.6;-0.522437367;0.297592645;0.743156721;-0.031407186;-0.007008879;0.005375841;-0.988848112;-0.082184012;0.07407515;-0.030492515;-0.00515496;-0.066945751;-0.961538609;-0.25456829;-0.01555945;-0.048844759;0.084875447;0.012303428;-0.977427229;-0.032360227;0.272445948;0.013684164;-0.141754241;-0.023370126;stand;4
8.7;-0.522076228;0.295322107;0.745083433;-0.035898475;-0.008696209;0.002193114;-1.000807185;-0.089425152;0.071491642;0.022126701;0.000457912;-0.07519927;-0.962379341;-0.253061345;-0.025648393;-0.028153638;0.102074181;0.009951653;-0.973343716;-0.032853855;0.27547477;-0.043690534;-0.055967888;-0.000430827;stand;4
8.8;-0.521833082;0.293986755;0.745217478;-0.041190516;-0.008038752;-0.004781549;-0.994852964;-0.099757009;0.069685718;-0.073397181;-0.033777567;-0.078833663;-0.966876562;-0.245718707;-0.033897138;-0.05658511;0.097944023;0.008677164;-0.969618716;-0.043444087;0.283144229;-0.070287888;-0.034271341;-0.008134815;stand;4
8.9;-0.52301063;0.287072896;0.746062645;-0.045852029;-0.009822534;-0.009580526;-0.986068487;-0.106003562;0.083807926;-0.066804713;-0.035308997;-0.079252748;-0.956123583;-0.259258167;-0.049706605;-0.065213277;0.093342923;0.008778213;-0.971810758;-0.05787111;0.28259522;-0.004139411;-0.02884782;-0.020752458;stand;4
9;-0.52285416;0.285071709;0.748022802;-0.027264623;-0.006604782;0.003163139;-0.991276514;-0.11577846;0.078421934;-0.122852546;-0.029609799;-0.082873926;-0.960929706;-0.256523278;-0.057075334;-0.116079031;0.08853181;0.006029846;-0.959266193;-0.050767722;0.281545776;0.050309602;-0.111123482;-0.029618242;stand;4
9.1;-0.523604597;0.283524691;0.747143054;-0.036366548;-0.008053404;-0.004256992;-0.98979723;-0.124230095;0.081945769;-0.128376481;-0.042195746;-0.087399626;-0.960021236;-0.253981457;-0.050867331;-0.097594181;0.09043883;0.017606357;-0.956500352;-0.03708052;0.29832135;0.042018795;-0.028455121;-0.029819505;stand;4
9.2;-0.521696926;0.283091302;0.750098996;-0.029221372;-0.006195813;0.002976997;-0.99106211;-0.128435607;0.081293986;0.00033159;-0.030717605;-0.100535379;-0.964793845;-0.248485711;-0.057102206;-0.08313957;0.11161554;0.046858821;-0.960560774;-0.033078028;0.295614074;-0.026821943;0.057508525;-0.027258066;stand;4
9.3;-0.523767904;0.279564696;0.749749099;-0.058756087;-0.008403318;-0.037963996;-0.986754597;-0.139638055;0.08679766;0.111777639;-0.031446273;-0.120981231;-0.957031804;-0.24923267;-0.061355325;-0.069506755;0.110571259;0.06944762;-0.96439717;-0.037616824;0.289964727;-0.072493051;0.133296405;-0.00095506;stand;4
9.4;-0.525734172;0.26905198;0.750875844;-0.042251403;-0.001090884;-0.019304631;-0.985928465;-0.150780523;0.06806317;0.109723142;-0.063678505;-0.156739532;-0.968633299;-0.221141515;-0.066440783;0.016418876;0.181010123;0.053081893;-0.972180449;-0.044431099;0.267000844;-0.13116772;0.031576685;0.073979883;stand;4
9.5;-0.523425828;0.271735774;0.755298446;-0.035963565;0.015613063;-0.009770579;-1.004604913;-0.173565971;0.023120382;0.483991834;-0.199600013;-0.220056205;-1.002028438;-0.151997584;-0.050394116;0.006919261;0.121657914;0.263423399;-0.969993377;-0.034773406;0.275416691;-0.195329227;0.02792687;0.099310774;stand;4
9.6;-0.534905746;0.281090912;0.772797865;-0.068076105;0.249033434;-0.088426221;-1.056554928;-0.155421228;-0.000570245;1.008320155;-0.470445596;-0.295551536;-1.055776347;-0.098481371;-0.036620625;0.02419628;0.008078909;5.04E-01;-0.977688841;-0.036675944;0.27791118;-0.196386174;0.004727804;0.10129695;stand;4
9.7;-0.615519431;0.379464856;0.803810067;-0.923205082;1.02892216;-0.895731382;-1.12524226;-0.136125332;0.050023267;1.034435094;-1.119586079;-0.299555565;-1.1299052;0.12487609;0.011521433;0.312802003;-0.458800479;1.331158039;-0.972012904;-0.132435048;0.248865537;0.029900159;0.049747216;-0.090792653;stand-walk;4
9.8;-0.430265674;0.422157889;0.87623892;-0.625951961;0.47880763;-0.287911912;-0.844578808;-0.154092014;0.330441254;0.328569595;-0.66853586;0.026588782;-1.064114119;-0.060752988;-0.09960606;0.266577901;-0.460050404;1.36082127;-0.958459905;-0.088329733;0.34209996;0.08318059;0.069728213;-0.138958557;stand-walk;4
9.9;-0.094944776;0.231678958;0.955744268;0.12461006;-0.814338876;0.788017071;-0.70926937;-0.237459245;0.288150742;0.070888589;1.272247778;0.161181454;-0.923930369;-0.050936799;-0.062891253;0.276485848;-0.454989389;0.774371354;-0.938257523;-0.092952373;0.317613979;-0.012241916;-0.055638031;0.032178545;stand-walk;4
10;-0.488764073;0.160192841;0.904592506;0.588339784;-1.671137542;0.657232939;-0.887749851;-0.189140636;0.1922503;-0.286076173;2.484643345;0.167515349;-0.870153294;0.097266058;-0.040318171;1.071127397;0.104484816;0.335067381;-0.937328632;-0.080295316;0.315471023;-0.090461608;-0.040520886;0.041833083;stand-walk;5
10.1;-0.858291483;0.1743058;0.638601064;0.580904022;-1.028700701;1.063713103;-1.04484784;-0.151019211;0.032942401;-0.672490875;1.910119392;0.259705309;-0.953556407;0.268150921;-0.080103516;-0.297802199;-0.00236102;-0.022949213;-0.932572977;-0.085993533;0.364849609;-0.147777986;-0.034649755;0.188909057;stand-walk;5
10.2;-0.758606201;0.035814165;0.592843665;0.151855631;0.107491761;0.767156506;-1.007654112;-0.161410195;-0.13395821;-0.05306717;0.359965545;0.202919473;-0.955137665;0.271743435;0.144710823;0.061895113;-0.026231705;-0.373866348;-0.937325504;-0.119852617;0.365557995;-0.195456754;0.068618217;0.189424707;stand-walk;5
10.3;-0.497782123;0.2060709;0.77419631;-0.124006069;1.36013305;0.014851001;-1.077400847;-0.177668626;-0.230871786;0.586039677;-0.479703292;0.173085652;-1.113512033;0.283962625;-0.049364077;0.35052337;-0.057348211;-0.27053791;-1.048918226;-0.115962993;0.350254145;-0.308189453;-0.025461297;0.182367842;stand-walk;5
10.4;-0.678683689;0.408420352;0.802862731;-0.382690604;0.449666984;-0.872982133;-1.001254315;-0.058418022;-0.08007573;0.382903078;-0.716622446;0.320464062;-1.01445143;0.068952955;0.121359575;-0.027086472;-0.276128638;-0.751838503;-1.018787852;-0.063426463;0.36546618;-0.078975193;-0.244246333;0.071810498;stand-walk;5
10.5;-0.539493394;0.209717645;0.776694396;-0.013068426;0.003525921;0.024648204;-0.977990042;-0.058527085;0.024535244;0.082423325;-0.702532593;0.379302315;-0.97175589;0.013602582;-0.027132051;0.578155207;-0.051616031;-0.5655291;-0.936787667;-0.023002283;0.258857681;-0.226614895;-0.153582984;0.052313507;stand-walk;5
10.6;-0.53341074;0.284491977;0.751809871;0.204884063;0.020166127;0.092450155;-0.987822246;0.010834;0.062845585;-0.316614694;-0.625637678;0.347763337;-0.981616496;-0.086913669;0.131212999;-0.147631808;-0.208889432;-0.596874059;-0.921948383;-0.017311111;0.247446369;-0.150519682;-0.049454547;-0.034971918;stand-walk;5
10.7;-0.52197281;0.28375014;0.749804199;0.009398832;-0.045345278;-0.022347151;-0.989485238;0.051105842;0.173726285;-0.36932066;-0.398333127;0.263031055;-0.967202376;-0.208675324;0.138636947;0.432734677;0.075181701;-0.629152055;-0.985145041;0.074465153;0.252937097;-0.169786424;0.064904485;0.126844188;stand-walk;5
10.8;-0.51451443;0.292321411;0.747067045;0.064515725;0.034886033;0.05739057;-0.998728127;0.063816133;0.089784987;-0.600737533;-0.251486932;0.170093867;-0.982849456;-0.125073008;0.127132693;-0.420088786;0.013383843;-0.680447873;-0.922520154;0.010262794;0.295163918;0.121318069;0.074923934;0.076741509;stand-walk;5
10.9;-0.529074083;0.315477222;0.740719587;0.005338765;-0.012399088;-0.012086509;-0.992038068;0.06571165;0.090611008;-0.272424014;-0.354821343;0.060047376;-0.966714015;-0.180035426;0.216592264;-0.352771296;-0.016716945;-0.418103247;-0.948718377;0.044345445;0.31029568;0.184776651;0.172902922;0.007292006;stand-walk;5
11;-0.522624866;0.285804328;0.748818265;-0.026584396;-0.030923794;-0.016825035;-0.986234375;0.044794249;0.162502491;-0.071228403;-0.407988041;-0.003135734;-0.95344873;-0.209775382;0.075251918;-0.310589949;0.098661454;-0.483167472;-0.905926443;0.053895991;0.309617861;0.216700853;0.214462565;-0.046322686;stand-walk;5
11.1;-0.52160633;0.297646352;0.746138546;0.079085884;0.036748902;0.052815843;-0.991699734;0.065480463;0.185258293;-0.192474685;-0.492280479;-0.068737725;-0.935078501;-0.26476173;0.142777473;-0.734516085;0.089765219;-0.629606717;-0.977633157;0.069272792;0.32785388;0.093948222;0.206586189;-0.113839422;stand-walk;5
11.2;-0.517961068;0.326023689;0.749483637;0.023843249;0.10588352;-0.034301311;-1.032669578;0.07318949;0.200057101;0.152146019;-0.587899365;-0.214945815;-0.947745124;-0.309538332;0.184491863;-0.359565029;0.169531511;-0.510666782;-1.035370954;0.050820548;0.341354389;0.086925911;0.068757134;-0.104685861;stand-walk;5
11.3;-0.547973015;0.297679037;0.770883658;0.090309243;0.937001519;-0.252556438;-1.070090467;0.004151781;0.207012676;0.437614931;-0.867517202;-0.386912949;-1.044856669;-0.294769263;0.07104059;-0.462730531;0.138816827;0.041352286;-1.023256194;0.040568332;0.234689767;0.02259347;-0.171917434;0.125131042;stand-walk;5
11.4;-0.660693794;0.311294795;0.6610508;-0.041909718;2.172355993;-0.411853705;-1.017606878;-0.030918422;0.21887368;0.404293619;-1.291293815;-0.469113621;-0.988620017;-0.146366306;0.034216682;-0.453365152;0.119236823;0.621150602;-0.950364287;0.032316815;0.273064828;-0.059944012;-0.135560798;0.126603387;stand-walk;5
11.5;-0.935162633;0.326011007;0.561560385;-0.428827974;3.55903487;-1.169424306;-1.124163169;-0.070658028;0.255227084;-0.16745956;-1.851969807;-0.371891048;-1.08261409;-0.008601543;0.020674177;-0.249028992;-0.052579003;1.167371868;-0.95518515;-0.036500305;0.215255081;-0.016643558;-0.066449097;0.121954208;stand-walk;5
11.6;-1.059931319;0.548999985;0.787356322;-0.002309454;2.167544327;-1.736221756;-0.826284966;-0.009928083;0.611891555;-0.146152021;-1.458616616;-0.13220357;-1.234720718;-0.224893051;0.081506307;-0.147562033;-0.728723853;1.886266679;-0.991123117;-0.064807766;0.193400267;-0.037340268;0.148159263;0.016153189;walk;5
11.7;-0.204789824;0.406176476;0.79671208;0.430804547;-2.592111287;0.097146359;-0.320050771;-0.089139207;0.603458234;0.078211655;1.570684686;0.153273334;-1.067825837;-0.238263156;-0.011869453;0.88251298;-0.653176411;1.830456018;-0.980244387;-0.047922771;0.251753888;-0.189101307;0.089176632;-0.001581645;walk;5
11.8;-0.69330977;0.272059895;0.774029065;1.119061242;-4.354197324;1.678771016;-0.482971796;-0.137463246;0.519933048;0.192677266;4.488850893;0.028227915;-0.709754865;-0.287009984;-0.118197231;0.795034813;-0.253793059;0.438617532;-0.949982423;-0.034227208;0.287067154;-0.216698943;0.046158646;0.029471332;walk;5
11.9;-1.795662026;0.042049891;0.555034577;0.688808604;-2.750335124;2.674441289;-1.203172051;-0.120466758;0.317941523;-0.31176623;3.807298801;0.117263335;-0.885913544;0.118126522;-0.07114963;0.605056477;0.237907272;-0.589145557;-0.92004466;-0.069334023;0.322048541;-0.181933728;-0.046106478;0.186426303;walk;5
12;-1.267169515;-0.240470034;0.190543427;-0.040984445;0.521799002;0.581208183;-1.215821724;-0.108358484;-0.011845483;0.146356329;0.004546959;0.120710585;-1.155073396;0.488084561;0.259808161;-0.043892213;-0.078691286;-0.072256632;-0.975744459;-0.099290272;0.346800439;-0.204682539;-0.140455486;0.100257205;walk;6
12.1;-0.702128077;0.458198237;0.739976757;0.10525165;0.720320009;-0.334160349;-1.015459057;-0.047759346;0.041549862;0.142527463;-0.773708428;0.265576694;-0.991464324;-0.073191317;-0.036710024;0.030387314;-0.0336325;-0.67262167;-1.10605806;-0.084520641;0.330709908;0.070099748;-0.108873948;-0.217651043;walk;6
12.2;-0.539076177;0.390298572;0.711708614;0.085351141;0.123112356;0.044851835;-0.98578091;0.006294688;-0.005499204;-0.281266284;-0.579577087;0.321318142;-1.006750231;-0.001372019;0.088279163;0.008219533;0.017234697;-0.824827022;-0.941592498;-0.019833626;0.27469689;0.06416052;-0.085867715;-0.203314474;walk;6
12.3;-0.543127732;0.390226219;0.698080911;-0.156744189;0.026419769;-0.094919488;-0.991753689;0.045143305;0.039217234;-0.214874415;-0.631128988;0.266294466;-0.974237988;-0.079652005;0.195086467;0.058579897;-0.057904224;-0.791387543;-0.925359026;0.058724625;0.167902592;0.070270983;0.000661144;-0.104500609;walk;6
12.4;-0.546189137;0.353785758;0.710494776;0.088520053;0.092379069;0.111672751;-0.989765085;0.071527354;0.206799165;-0.212919577;-0.416564532;0.173673678;-0.965167048;-0.227236729;0.137292793;0.057492408;0.106722256;-0.48159371;-1.005351899;0.05767663;0.261422476;-0.126410161;0.01066254;0.127761287;walk;6
12.5;-0.540540981;0.410864801;0.675216737;0.326794591;0.128616744;0.207303685;-0.985290245;0.084261074;0.141803419;-0.612133084;-0.227308409;0.098996412;-0.961165648;-0.209117462;0.12826953;-0.243928644;0.139180211;-0.707522809;-0.921059672;0.015075437;0.300455025;-0.060542608;0.176698657;0.113895179;walk;6
12.6;-0.529234498;0.453022653;0.649452597;0.070021028;0.101567497;0.063027213;-1.001735921;0.081596859;0.060043683;-0.434148692;-0.304259504;0.017637078;-0.960688533;-0.170794673;0.177628147;-0.408729797;0.187550521;-0.659146064;-0.939147774;0.033371751;0.279526233;0.071927268;0.124539858;0.041740579;walk;6
12.7;-0.540388983;0.438654373;0.655917704;-0.277791181;-0.013362169;-0.18268613;-1.001183549;0.07481284;0.088764575;0.060310922;-0.553490676;-0.031891282;-0.966833785;-0.207867931;0.148998536;-0.478152946;0.191956098;-0.556121479;-0.940255822;0.046954928;0.298544531;0.150204599;0.068301077;-0.055909755;walk;6
12.8;-0.559836801;0.376839439;0.68753935;-0.242897509;0.012040787;-0.203529024;-0.988660939;0.069170958;0.230442905;0.110406034;-0.748638219;-0.109351186;-0.935913211;-0.31079337;0.101884187;-0.285362531;0.083493955;-0.374927357;-0.967238096;0.041767276;0.312111847;0.13943332;0.090924715;-0.118149058;walk;6
12.9;-0.582162436;0.379428915;0.705982123;0.064925112;0.601972099;-0.226658109;-1.067649776;0.074523898;0.254321802;0.20982777;-0.818681034;-0.245462019;-1.004686679;-0.351363934;0.119352777;-0.541417573;0.02317553;-0.145853773;-1.059906192;0.012499024;0.342608049;0.264090213;0.026212128;-0.138441445;walk;6
13;-0.656420226;0.357146547;0.658732145;-0.046249744;1.906759985;-0.536196216;-1.062901514;0.011649462;0.202658493;0.465961885;-1.20785663;-0.425182084;-1.029974641;-0.155610623;0.103520461;-0.412937034;0.06027913;0.374842313;-1.018270738;0.07036062;0.303890545;0.155470812;-0.080454268;0.038678321;walk;6
13.1;-0.7932624;0.348432242;0.50323428;-0.44262412;3.35480624;-0.947530176;-1.031016981;-0.060480766;0.262805683;0.012949321;-1.64092587;-0.420644286;-1.010358491;-0.087173423;0.016451018;-0.186363988;0.12300802;0.760041773;-0.932342109;0.000931269;0.23663424;0.109464776;-0.134161914;0.078603733;walk;6
13.2;-1.199317458;0.479742158;0.391038419;-0.093737224;3.939885973;-1.553678867;-0.994637962;0.030495592;0.479238814;-0.183426512;-1.743145743;-0.307376371;-1.14909686;-0.114512414;0.100510485;-0.399779986;-0.363212406;1.442214261;-0.972187272;-0.054260444;0.176652847;-0.093953435;-0.07273355;0.049038212;walk;6
13.3;-0.756423462;0.412893434;0.774979116;0.659156787;-1.441089816;-1.127469033;-0.477483507;0.015257254;0.682619758;-0.002692539;-0.021661638;0.040972812;-1.139159394;-0.280913591;0.047435895;0.951287581;-0.597686356;1.825585202;-0.977675651;-0.0472738;0.24922109;-0.198755629;-0.072075181;-0.011735779;walk;6
13.4;-0.469252051;0.34617495;0.546626301;0.981997411;-4.589662138;0.53213874;-0.356824901;-0.028937594;0.582756965;0.187537835;2.973154558;0.197676267;-0.913964606;-0.255639594;0.008711656;0.690125697;-0.64202603;1.115280352;-0.93697051;-0.042495233;0.270375482;-0.316589657;0.065548657;0.074181568;walk;6
13.5;-1.072657222;0.262177673;0.734014151;1.45974712;-3.88036959;2.276039259;-0.848386648;-0.076560739;0.451318954;0.016896508;4.534561072;0.241549385;-0.724127921;-0.183890709;-0.101577598;0.758403706;-0.094136474;-0.091811147;-0.924739059;-0.065224953;0.336048723;-0.168215223;0.109097299;-0.03888234;walk;6
13.6;-1.703376365;-0.205509672;0.422014058;0.358342721;-1.657327677;2.238114396;-1.240136878;-0.112707531;0.181214923;-0.068010988;2.585078986;0.112549814;-1.02053925;0.281355982;0.176112699;0.309456833;0.054791537;-5.03E-01;-0.941068285;-0.059361398;0.294958249;-0.116831748;0.034689572;0.073784719;walk;6
13.7;-0.925332115;0.102302604;0.481572887;-0.259672864;0.952036041;-0.387242396;-1.155280956;-0.018781094;-0.029026075;0.544512087;-0.630560381;0.032748102;-1.190623342;0.26174621;0.150599589;0.353830467;0.083825498;-0.145939907;-1.05117428;-0.070866729;0.396274832;-0.243956039;-0.000236262;0.083508338;walk;6
13.8;-0.683712404;0.289759968;0.762885591;-0.774065457;0.650883297;-0.217107807;-0.981154363;-0.006943573;0.035025908;0.490332685;-0.860598059;0.190386035;-0.890991697;-0.05011552;0.097072485;0.374270421;0.005156715;-0.773672741;-1.002538898;-0.090056405;0.341895439;0.015110116;-0.143729848;-0.070087543;walk;6
13.9;-0.576270708;0.276303334;0.753047133;-0.020821592;-0.072232444;-0.036756704;-0.984200377;0.034616799;0.085045786;-0.347334413;-0.783184934;0.276845765;-0.9913575;-0.024955806;0.068455045;0.098391863;0.009715604;-0.888326624;-0.921055424;-0.015654995;0.231930757;-0.28524553;-0.092950585;-0.00475049;walk;6
14;-0.520602509;0.286759187;0.747205884;-0.160774687;-0.114147341;-0.042813197;-0.98529214;0.076824739;0.145637241;-0.344344065;-0.648397606;0.202070218;-0.951452006;-0.228763655;0.190047599;-0.240451309;0.05102834;-0.950571545;-0.972861389;0.03433161;0.191833144;-0.041758298;0.04303503;-0.044905561;walk;7
14.1;-0.516489418;0.268354332;0.760245591;-0.205896531;-0.128479565;-0.118942487;-0.990447756;0.088780977;0.152524095;-0.096707047;-0.527528206;0.077872162;-0.96453789;-0.189684453;0.183495448;0.068609404;0.191093741;-0.686356781;-0.973355074;-0.008888081;0.248590104;0.146298189;0.05033039;-0.019499556;walk;7
14.2;-0.506628792;0.254090137;0.730484354;-0.094609423;-0.068275093;-0.108827554;-0.970913291;0.075692442;0.189288566;-0.057761358;-0.54436662;0.011667013;-0.932878152;-0.255209435;0.169692996;-0.548918299;0.071694849;-0.674548794;-0.927682489;0.02444057;0.291761447;0.084848215;0.096547869;0.017249425;walk;7
14.3;-0.507138838;0.224383792;0.783844867;-0.060353505;0.01940048;-0.076959081;-0.971670573;0.066399008;0.263177259;-0.219785281;-0.56754315;-0.020673007;-0.940291301;-0.317704296;0.08539722;-0.206208899;0.247201649;-0.637666101;-0.935828072;0.029815379;0.291927996;0.109365157;0.061689831;-0.024672528;walk;7
14.4;-0.519135716;0.237453259;0.784453141;0.08806097;0.337606129;-0.096340461;-1.014997965;0.067201914;0.24168451;-0.366667183;-0.67003776;-0.08428749;-0.958380123;-0.315083907;0.108938605;-0.525886464;0.134559892;-0.543712016;-0.954389272;0.034067567;0.333439793;0.242180074;0.019591258;-0.161853135;walk;7
14.5;-0.561164646;0.238115419;0.766302423;-0.017147798;1.016012496;-0.189233416;-1.074119364;0.067143043;0.264188344;0.206805379;-0.912551276;-0.324217155;-0.964120002;-0.333734212;0.18569927;-0.61174534;0.131929328;-0.296611496;-1.012270899;0.030036188;0.404856116;0.335133459;-0.03730456;-0.200751658;walk;7
14.6;-0.663996038;0.280126195;0.706816335;-0.301975547;2.600483368;-0.595711519;-1.068520488;0.05097376;0.264792223;0.622346071;-1.260675514;-0.51126753;-1.090840336;-0.206751011;0.117141757;-0.358797868;0.160918683;0.262559815;-1.087722501;0.037150447;0.336946328;0.160943897;-0.144389757;0.155406718;walk;7
14.7;-0.975037328;0.124477827;0.41757197;-1.008392488;3.703769429;-1.278652287;-0.939529152;-0.027027536;0.361019669;-0.102926472;-1.516679176;-0.346209586;-0.913412534;-0.24446688;-0.006719992;-0.681250415;0.02513558;0.6635774;-0.88805376;-0.016406636;0.254499564;0.080286962;-0.06644839;0.176401417;walk;7
14.8;-1.273465499;0.308381608;0.585197391;0.148907388;2.825251743;-1.791459106;-1.005029392;-0.01667156;0.450886218;-0.447397372;-1.820459783;-0.023205524;-1.134335936;-0.070569604;0.102551228;0.163050654;-0.316816706;1.742451056;-0.968997367;-0.11015471;0.134951778;0.024146572;-0.055438362;0.094469968;walk;7
14.9;-0.636492437;0.304925742;0.63431456;0.466762488;-1.125908813;-0.557326445;-0.482343753;-0.079691019;0.747653544;-0.051618323;-0.132649984;0.158690746;-1.220262104;-0.3113814;-0.012531448;0.378116795;-0.872889709;2.01975838;-0.997476772;-0.050091917;0.260324637;-0.136301577;0.010231282;0.052128476;walk;7
15;-0.384023599;0.106073058;0.723082463;1.084269701;-3.417256196;1.636771972;-0.276636325;-0.112050155;0.638950416;0.182574529;2.975648787;0.088468987;-0.956874826;-0.27986819;-0.037987649;0.601883449;-0.6467598;1.313578994;-0.921692065;-0.036769771;0.309013695;-0.15783901;0.141829184;0.040022208;walk;7
15.1;-1.095528651;0.132174967;0.83682438;1.944917382;-4.617780265;1.90425147;-0.736147242;-0.095408678;0.4909881;-0.173192296;4.827101233;0.163596966;-0.677172517;-0.214637691;-0.114800636;1.0198899;-0.046541944;0.317389889;-0.913433521;-0.043797286;0.307904936;-0.195904833;0.085495005;0.070218301;walk;7
15.2;-1.676547111;-0.094738529;0.520022851;0.761507;-2.088605235;2.534186305;-1.237574695;-0.073579995;0.22349512;-0.499450455;3.19110397;0.17999825;-0.951582081;0.203132017;0.109112297;-0.319424727;0.108196231;-0.479046166;-0.944590794;-0.054696666;0.337949816;-0.240192375;-0.055631913;0.139419923;walk;7
15.3;-1.235752642;-0.1607682;0.390982686;-0.08487824;1.199076207;0.088064376;-1.22999499;-0.087638392;-0.046348014;0.484173679;-0.331798041;0.074763046;-1.308572982;0.306116255;0.280833658;0.603160548;0.122570741;-0.351009111;-1.063612561;-0.075362679;0.416774864;-0.304093845;0.002343623;0.124506053;walk;7
15.4;-0.641480217;0.396927727;0.730687614;-0.76471313;0.623332982;-0.418086584;-0.96150145;-0.013874174;0.006987896;0.632968762;-1.005993691;0.208389973;-0.839919207;0.010794226;0.011771468;0.506893974;0.005186735;-0.598907584;-0.979054313;-0.06927852;0.3627379;0.111141312;-0.004933948;-0.139825965;walk;7
15.5;-0.58010464;0.268641127;0.756257808;-0.031401442;-0.124437996;-0.101828692;-0.982019117;0.0271131;0.048960062;-0.29744653;-0.852255203;0.333513827;-0.981756193;-0.019039915;0.084246708;-0.214100623;-0.063012024;-0.93590565;-0.934652664;-0.00718217;0.25770947;-0.248029033;-0.135896189;-0.072208256;walk;7
15.6;-0.528081698;0.243647282;0.763012004;-0.30897048;-0.216091202;-0.129565045;-0.97959523;0.055881092;0.165253422;-0.115689413;-0.759451082;0.244814028;-0.951085728;-0.20277846;0.151278012;0.127192693;0.047248546;-0.95445038;-0.950479285;0.03764216;0.18671762;0.004808313;0.01054693;-0.114823061;walk;7
15.7;-0.513107404;0.252296202;0.76718421;0.084781788;0.046845781;0.054506387;-0.98751025;0.092163881;0.1996105;-0.315769362;-0.50046063;0.149804822;-0.956418638;-0.260888471;0.153573729;-0.196020122;0.126823738;-0.779480827;-0.993647533;0.012541557;0.25774048;-0.02822419;0.089034817;0.009952052;walk;7
15.8;-0.520486354;0.283994722;0.751645566;0.104197295;0.068755455;0.011709443;-0.977922459;0.095035899;0.180896788;-0.370204423;-0.443378702;0.059815943;-0.935271658;-0.267182678;0.17471062;-0.535620553;0.169852564;-0.746903425;-0.92712736;0.026837578;0.271182429;0.056292824;0.148086193;0.001270909;walk;7
15.9;-0.523098287;0.280985623;0.756535419;-0.012805154;0.075928488;-0.053530986;-0.994632508;0.076329356;0.200474554;-0.300692259;-0.503815337;-0.018429764;-0.956869901;-0.292855282;0.146341656;-0.206454155;0.25059253;-0.631152851;-0.958157419;0.037455272;0.303371484;0.017989621;0.042303365;0.035689283;walk;7
16;-0.54302075;0.268501448;0.753420414;0.064018247;0.385086287;-0.119961027;-1.001132733;0.061570976;0.248297894;-0.283372603;-0.604426802;-0.108532371;-0.943374925;-0.345914572;0.072458084;-0.470127578;0.131257319;-0.493144751;-0.927927625;0.043448759;0.335268172;0.216344543;0.00522679;-0.112125444;walk;8
16.1;-0.589521967;0.27908041;0.721609741;0.023553685;0.821443672;-0.129014326;-1.020397798;0.063190434;0.278802237;-0.108892122;-0.754371886;-0.282978049;-0.930157269;-0.346309752;0.140391252;-0.458202512;0.176598976;-0.330783338;-0.972485665;0.034043735;0.34572417;0.268066107;0.066899017;-0.181532765;walk;8
16.2;-0.662087563;0.289339138;0.703505985;-0.185131718;1.796528284;-0.479655416;-1.106900064;0.041147128;0.207483954;0.520096264;-1.020645386;-0.489629207;-1.07573586;-0.304123573;0.18679376;-0.448279822;0.183602278;-0.100859194;-1.110901605;0.057305021;0.363145917;0.253030212;-0.102320773;0.078769859;walk;8
16.3;-0.819281166;0.256707561;0.505328398;-0.650677093;3.316178445;-1.05990665;-0.967571642;-0.022224144;0.291470318;0.334969909;-1.469952812;-0.467510239;-0.95203911;-0.147269535;-0.049685916;-0.624438453;0.007363002;0.747085582;-0.910841487;-0.025941379;0.285094441;0.156207171;-0.04338698;0.055491412;walk;8
16.4;-1.214475748;0.248817451;0.414686753;-0.302473059;3.050145798;-1.557629391;-0.953591474;-0.020884774;0.444411439;-0.133946926;-1.778928358;-0.238502887;-1.039293345;-0.251666663;0.106806968;-0.250084729;-0.315699864;1.220157138;-0.980590185;-0.074184133;0.156277773;0.097192289;-0.097956075;0.063271679;walk;8
16.5;-0.871505411;0.293570297;0.64828301;0.381477649;-0.104506346;-1.228501973;-0.62392439;-0.056127703;0.691839578;-0.005323545;-0.744423719;-0.006798703;-1.154748737;-0.27854145;-0.085567193;0.921691479;-0.483159762;1.866957157;-0.961959303;-0.083039874;0.20962267;-0.012682395;0.050503751;-0.044384879;walk;8
16.6;-0.429612822;0.20844461;0.601646087;0.900771315;-3.11712382;0.732589432;-0.373752214;-0.089498338;0.674981348;0.017792111;1.884977963;0.168038791;-1.033696312;-0.262625322;-0.029900756;0.216734907;-0.748912596;1.486171804;-0.951948872;-0.037191907;0.277848427;-0.25208373;0.100558939;-0.003691237;walk;8
16.7;-0.795967215;0.167874065;0.770315732;1.636226049;-4.127074061;1.762281008;-0.614275701;-0.087554967;0.562672377;-0.020187016;4.174644832;0.131620838;-0.800249454;-0.287721026;-0.033679752;0.762659015;-0.267905846;0.661981729;-0.936832974;-0.063118836;0.308154599;-0.077612;0.138094805;-0.074550769;walk;8
16.8;-1.48651924;0.018897226;0.638600426;1.033898091;-2.442707148;2.474485844;-1.113550976;-0.055101518;0.363621466;-0.347101448;3.690088581;0.191362317;-0.852244403;0.058371953;0.016313543;0.354619229;0.150109725;-0.157962371;-0.942973644;-0.066124106;0.301327114;-0.091567104;0.080451989;0.043903341;walk;8
16.9;-1.476299845;-0.300463147;0.127871897;-0.004776954;-0.158641296;1.085848892;-1.121672408;-0.074828434;0.15261409;0.065582288;0.548067751;0.124228715;-1.026058127;0.262421961;0.249580325;0.148286961;0.068884865;-0.530862175;-0.958639829;-0.055269416;0.342520505;-0.163118253;-0.070514636;0.125928193;walk;8
17;-0.527741505;0.359492298;0.855286768;-0.29587375;1.309086194;-0.50540235;-1.101654571;-0.06159397;-0.082216021;0.374310336;-0.714227879;0.127089828;-1.165636629;0.031828468;0.045049907;0.51123254;0.150211258;-0.464447146;-1.089750279;-0.076006429;0.374003894;-0.348474571;-0.052214013;0.04622387;walk;8
17.1;-0.62010079;0.331602197;0.768150952;-0.415896496;0.119605939;-0.094087553;-0.978297263;0.011235249;0.04982584;-0.022396471;-0.743134525;0.244537985;-0.905516799;-0.006811102;0.007482926;0.121820354;-0.042398997;-0.817896082;-0.926322541;-0.083979478;0.323966016;-0.106413522;-0.038436418;-0.047018827;walk;8
17.2;-0.569998227;0.291127793;0.738792879;-0.069603724;-0.034587155;-0.007252271;-0.991760645;0.05226295;0.096426974;-0.401978118;-0.764631317;0.232291913;-0.955207159;-0.163446764;0.221544928;-0.309571348;0.050298782;-1.016679377;-0.940500472;-0.011984781;0.227631697;-0.207161299;-0.179055477;-0.033765711;walk;8
17.3;-0.534034148;0.304271978;0.736029421;-0.056795449;-0.065618409;0.004663784;-0.983071381;0.078871761;0.165193498;-0.156365817;-0.630667425;0.11783578;-0.959773574;-0.246234005;0.146122328;-0.12570119;0.170566819;-0.724148648;-0.96545189;0.033325113;0.211084099;-0.142498232;0.035147443;0.004989943;walk;8
17.4;-0.527212743;0.287987774;0.744896895;-0.131078495;-0.125826069;-0.100531447;-0.979230913;0.07779812;0.205346964;-0.029719282;-0.508035298;0.028986873;-0.936616407;-0.299939992;0.146696688;-0.148731109;0.158158721;-0.702040423;-0.961591481;0.002033662;0.288812198;0.050507657;0.05044168;0.056854844;walk;8
17.5;-0.52452485;0.26784571;0.75296093;-0.14090997;-0.097298615;-0.152786663;-0.969854956;0.06561659;0.244942887;-0.181678305;-0.47705897;-0.014972446;-0.919736956;-0.321517602;0.092801298;-0.08975574;0.203403494;-0.621629752;-0.92429791;0.022113519;0.311868666;-0.026102089;0.167570971;0.03963039;walk;8
17.6;-0.523669964;0.254716589;0.76587336;0.009839971;0.160471103;-0.128974072;-1.004392057;0.060321286;0.230601929;-0.353146163;-0.547150783;-0.073093587;-0.953792215;-0.328395685;0.096020175;-0.245120467;0.168598376;-4.52E-01;-0.94021431;0.03148327;0.325465843;0.115106575;0.070072421;-0.036651124;walk;8
17.7;-0.549493815;0.252723999;0.770283119;0.014190355;0.75134757;-0.205889937;-1.0556441;0.045050195;0.232785151;0.047978299;-0.769938751;-0.254893917;-0.988942214;-0.319480197;0.136143026;-0.557969545;0.09778134;-0.323557262;-1.002270468;0.03280702;0.382113946;0.356004867;-0.036084335;-0.19867797;walk;8
17.8;-0.640176091;0.267585638;0.732108972;-0.23058634;1.873085165;-0.440143574;-1.118726027;0.072016354;0.157280253;0.81232805;-1.14226641;-0.513821388;-1.054812094;-0.279185593;0.264127301;-0.192731661;0.225625505;-0.215033762;-1.080842016;0.049530252;0.376299547;0.2887576;-0.194868185;0.019854907;walk;8
17.9;-0.797923004;0.294687792;0.556573394;-1.028925161;3.523637437;-1.499264765;-1.017443436;0.033923485;0.27703316;0.336095654;-1.716144;-0.404842652;-1.003660179;-0.078469902;-0.06106185;-0.639318153;-0.105469224;1.012270786;-0.941331783;-0.033011303;0.269521757;0.027912781;-0.1090998;0.161439999;walk;8
18;-1.331642671;0.185388028;0.569706602;-0.310138538;3.309156831;-2.089530762;-0.987232691;-0.032124833;0.480606063;-0.423383262;-1.902505295;0.001965802;-1.114197742;-0.21006772;0.108584059;-0.507078137;-0.583589354;1.693481163;-0.939519302;-0.09925669;0.13801605;0.074788274;0.014000259;0.074653347;walk;9
18.1;-0.681391775;0.264653552;0.640264101;0.431942091;-0.50806993;-0.373046235;-0.510018586;-0.099481985;0.773698878;-0.119480894;-0.317397291;0.149893466;-1.228181172;-0.277314677;-0.033902929;0.940118682;-0.690797354;2.202280119;-0.983710649;-0.06766021;0.274389827;0.044126692;0.115805623;-0.028877498;walk;9
18.2;-0.402301626;0.031987144;0.673995189;1.138902454;-3.356561232;1.243733441;-0.280835938;-0.087492098;0.620360066;0.03412898;2.544730396;0.172625238;-0.92071927;-0.214946188;-0.024164162;0.264188125;-0.674886538;1.419887094;-0.921251787;-0.038983378;0.313474974;-0.127933722;0.141608436;0.033461153;walk;9
18.3;-0.86446832;0.164871852;0.826994583;1.97835187;-4.248450511;1.831195112;-0.650907467;-0.102385734;0.473677125;-0.126847604;4.600525036;0.139621996;-0.706260744;-0.225064384;-0.051722652;0.641502884;-0.033210955;0.244333614;-0.919192485;-0.050297044;0.336419969;-0.154512123;0.129674904;0.013118894;walk;9
18.4;-1.646789878;-0.053751071;0.723533879;0.842612;-2.471331162;2.580877484;-1.24554812;-0.071055319;0.193209821;-0.62107994;3.66639821;0.151200542;-0.935095206;0.177697398;0.089243138;0.21534133;0.362880327;-0.677679265;-0.918447233;-0.053545081;0.349772506;-0.148246441;0.037852735;0.089904643;walk;9
18.5;-1.163636164;-0.30250262;0.176173931;-0.004972955;0.628671322;0.310130881;-1.186844245;-0.059816542;-0.074944037;0.293550776;-0.153343372;0.061560361;-1.140685259;0.42180137;0.27414183;0.46046556;0.174893056;-0.583219356;-0.964231051;-0.079806344;0.342347089;-0.149063354;-0.081194784;0.061172387;walk;9
18.6;-0.782130342;0.448149552;0.835650411;-0.39187531;1.066210373;-0.476759664;-1.018643764;0.003100283;0.005704636;0.612215763;-1.097912605;0.146800078;-1.008465439;-0.000846651;0.07669566;-0.200985894;-0.16716107;-0.15207238;-1.125092052;-0.125274242;0.324972579;-0.002102999;-0.125699127;-0.143315699;walk;9
18.7;-0.558834362;0.26046178;0.763823053;-0.228933094;-0.071609094;-0.124728445;-0.967467565;0.009013998;0.108109347;-0.291329529;-0.83496246;0.285893708;-0.976051937;-0.115584098;-0.007295167;0.04708962;0.00811012;-0.911439743;-0.921981397;-0.019645811;0.300968204;-0.202449985;-0.132712694;-0.049650018;walk;9
18.8;-0.537804146;0.281651001;0.753489517;-0.089964856;-0.083269579;-0.011693135;-0.98253047;0.063823071;0.13974027;-0.379927759;-0.698850687;0.219666463;-0.953998909;-0.210953559;0.1853126;-0.006333316;0.127928455;-0.999773298;-0.952030588;0.051989937;0.155083305;-0.150855632;0.011011391;-0.06019664;walk;9
18.9;-0.51855531;0.281768601;0.754048409;-0.069564143;-0.044315898;-0.004200319;-0.996903835;0.084920805;0.149110165;-0.448185392;-0.481271796;0.10431685;-0.952328204;-0.243529781;0.178607844;0.087072388;0.292122514;-0.886875313;-0.954640941;0.008319731;0.277868624;-0.114572514;0.03334391;0.054521694;walk;9
19;-0.507206299;0.283411198;0.755418389;-0.145602609;-0.098222173;-0.100402305;-0.982226345;0.078430403;0.100291517;-0.059529459;-0.569283467;-0.014539995;-0.974814162;-0.16291133;0.188639515;-0.280429119;0.155215748;-0.724249545;-0.915647543;-0.016137026;0.283387336;-0.034320133;0.184098553;0.024057315;walk;9
19.1;-0.507389216;0.241154456;0.773133678;-0.129111533;-0.073357278;-0.111678693;-0.969235537;0.063145694;0.259782682;-0.016464332;-0.621070802;-0.066368736;-0.912995145;-0.327511992;0.069262393;-0.400147008;0.186794736;-0.620198093;-0.932754728;0.034552215;0.326891708;-0.006528487;0.123834469;-0.009391766;walk;9
19.2;-0.508922328;0.247510342;0.785702628;0.009976376;0.177185986;-0.068602576;-1.017993991;0.063799815;0.23635714;-0.130253813;-0.661885486;-0.172552039;-0.939124803;-0.337333053;0.134324357;-0.215263342;0.254420078;-0.566518582;-0.950108153;0.040882009;0.344435762;0.057270556;0.079446645;-0.008219917;walk;9
19.3;-0.530402794;0.255671293;0.807724259;-0.064288712;1.015685887;-0.179557312;-1.11553892;0.049810085;0.186757852;0.568414033;-0.928858719;-0.416419015;-1.056798569;-0.325733701;0.198801532;-0.216828487;0.230629414;-0.335159598;-1.081954082;0.042805438;0.329139883;0.073339846;0.180891084;0.010339941;walk;9
19.4;-0.658165421;0.296046111;0.713921081;-0.325393818;2.807610671;-0.671654477;-1.083374921;0.036367254;0.196471519;0.720954523;-1.499807814;-0.491957454;-1.066218381;-0.088954865;0.025811386;-0.404485687;0.022364751;0.685885352;-1.036425661;-0.022812957;0.256795247;0.085534601;0.100230308;0.067222595;walk;9
19.5;-1.08441071;0.265929021;0.549647752;-1.078293411;3.819528989;-1.808691701;-1.013845236;0.003442509;0.37783011;-0.20464545;-1.879100192;-0.132159471;-1.045688661;-0.161148214;0.03310524;-0.649049582;-0.36596247;1.183719281;-0.949817683;-0.094875792;0.118272217;0.243522742;0.038256912;-0.052801119;walk;9
19.6;-0.778441745;0.348882949;0.791161617;0.357157442;0.98083722;-1.309098892;-0.674057258;-0.050608085;0.629888364;-0.33369955;-0.980217681;0.220660349;-1.150715746;-0.305432726;-0.01716791;0.243994848;-0.497366908;1.913610321;-0.984525919;-0.078791082;0.165833522;0.032547136;-0.014044629;-0.030891746;walk;9
19.7;-0.445570441;0.222896869;0.690428471;0.862721675;-2.233829066;0.774910539;-0.424135456;-0.045289638;0.608615821;-0.109105888;1.68218297;0.245798469;-0.987014652;-0.234456128;0.022260228;0.285687435;-0.674628802;1.533784706;-0.94221198;-0.069450878;0.230428375;-0.082151524;-0.021619345;-0.027875359;walk;9
19.8;-0.737789215;0.138574073;0.707707393;1.49246015;-3.706212765;1.606931757;-0.627076306;-0.049806843;0.523260128;0.011317216;3.694541648;0.164248554;-0.825821792;-0.190907493;0.039035901;0.689523234;-0.307633554;0.732939222;-0.940101209;-0.077672018;0.265544089;-0.092059238;0.025204148;0.012922554;walk;9
19.9;-1.213493231;0.195681505;0.745663638;0.961426168;-2.497408444;2.203089531;-1.043891629;-0.045587979;0.318073812;-0.091515381;3.865652507;0.173370754;-0.806103821;-0.018327866;0.018054992;0.207315303;-0.004830277;-0.234855595;-0.939306818;-0.069401708;0.28074045;-0.110118052;-0.04496433;0.071153078;walk;9
20;-1.44815403;-0.289931098;0.276600171;0.098025507;-0.869932648;1.650957883;-1.181762643;-0.079532463;0.065614912;-0.230334897;1.367453554;0.156712621;-1.083847585;0.298889265;0.211581872;0.689997679;0.205842138;-0.473362875;-0.938736964;-0.095056334;0.338151476;-0.101894793;-0.003105745;0.092974564;walk;10
20.1;-0.813918209;0.103984715;0.639189911;-0.210634625;1.138026907;-1.095758151;-1.125502237;-0.029023099;-0.020696462;0.174469532;-0.828572254;0.086913938;-1.205289708;0.099983623;0.019100589;0.277635358;0.086205226;-0.492064575;-1.125856544;-0.089259482;0.342515651;-0.20747109;-0.014832077;0.060877422;walk;10
20.2;-0.633932566;0.371784955;0.80053582;0.072116613;0.359545572;0.07475831;-0.985519337;0.032744481;0.029345168;-0.41881177;-0.84297124;0.175647564;-0.854562591;-0.074476429;0.087020237;-0.724850349;-0.145393234;-0.701184928;-0.98326287;-0.064709523;0.309555142;0.092078199;-0.073210531;-0.005278535;walk;10
20.3;-0.547135016;0.397762769;0.699165395;0.253714298;0.106537775;0.173260198;-0.985287243;0.083512969;-0.005223135;-0.627837178;-0.818797252;0.127287944;-0.967339634;-0.068389007;0.213415643;-0.274413381;0.237122586;-0.803609788;-0.89263007;0.019645728;0.133517786;-0.264197189;-0.12279279;0.085590188;walk;10
20.4;-0.531515785;0.368390016;0.709378652;-0.132782884;-0.047800119;-0.109963175;-0.987646287;0.087067189;0.123667696;0.105051739;-0.703038928;0.035134284;-0.952721524;-0.232187902;0.173272608;-0.260516483;0.114427953;-0.554850877;-1.014908;0.011391388;0.177217998;0.02690612;0.049815657;0.061826721;walk;10
20.5;-0.529850109;0.349556982;0.714816577;-0.284812434;-0.218939915;-0.286189259;-0.97524716;0.081322277;0.164959588;0.049984845;-0.559973773;0.013666307;-0.947177637;-0.24546655;0.139419476;0.127120976;0.195289806;-0.722926962;-0.919784492;0.014457622;0.271517762;-0.000443267;0.118167334;0.025112637;walk;10
20.6;-0.528435498;0.288610302;0.7455467;-0.328859719;-0.179080332;-0.191719927;-0.968009011;0.065909553;0.220380785;-0.082118315;-0.554660753;-0.018340562;-0.934923821;-0.26906053;0.08069618;0.017007458;0.238471496;-0.892743874;-0.949600115;0.022882091;0.270828578;0.115204265;0.05725466;-0.038489856;walk;10
20.7;-0.516445746;0.261166544;0.762402057;-0.196127268;-0.022621619;-0.098672478;-0.985647506;0.076262632;0.242044304;-0.325692904;-0.598098626;-0.068974449;-0.928904192;-0.336222307;0.110657738;-0.231069391;0.162096251;-0.634368433;-0.926056793;0.019898982;0.294018441;0.26392581;-0.003910277;-0.179240794;walk;10
20.8;-0.522917406;0.256810159;0.780664929;-0.024709658;0.37649922;-0.140532264;-1.025014659;0.066878966;0.257946978;-0.275673381;-0.734110991;-0.206217127;-0.969989317;-0.339702547;0.098292881;-0.531949513;0.081554707;-0.470002199;-0.98563521;0.019176626;0.326261644;0.556787329;-0.05844835;-0.307351835;walk;10
20.9;-0.581936996;0.279260186;0.754740243;-0.08075576;1.231621219;-0.330724342;-1.091662616;0.064434715;0.253203129;0.246234886;-0.936618031;-0.448829451;-0.974905039;-0.384427167;0.220857885;-0.684154735;0.200768319;-0.309475816;-1.03427907;0.054883013;0.387607358;0.440131059;0.009563267;-0.216054451;walk;10
21;-0.691509371;0.309253549;0.68672895;-0.594408156;2.797577675;-1.032976791;-1.078869564;0.053820087;0.207090958;0.843983484;-1.375124575;-0.580872934;-1.089395097;-0.167259503;0.105709537;-0.43481316;0.17024622;0.299226193;-1.092380794;0.025578365;0.300215453;0.275405473;-0.107575595;0.20727262;walk;10
21.1;-1.098755445;0.119230749;0.446039965;-1.022035674;3.634465125;-1.969954922;-0.905781253;0.019394958;0.403484118;-0.182149497;-1.75346036;-0.187502187;-0.937749164;-0.217124038;-0.057469433;-0.723214992;-0.289624318;1.004268844;-0.898780944;-0.108343271;0.16868589;0.248456325;-0.022002961;0.099700199;walk;10
21.2;-1.061848574;0.294831707;0.690394849;0.648569756;1.401340792;-1.979073609;-0.756010879;-0.060990482;0.584066422;-0.416297345;-1.280976968;0.331888206;-1.096891559;-0.297252739;-0.027516872;0.119288061;-0.598011721;1.631690149;-0.978663089;-0.114770175;0.163717939;0.139229846;0.021025517;0.005706387;walk;10
21.3;-0.460154283;0.145105966;0.629505822;1.497615326;-2.012859873;0.765557707;-0.489640377;-0.132030702;0.675013729;-0.154145522;0.991575882;0.564768659;-1.112159507;-0.267396237;-0.068509832;0.41048727;-0.785890799;1.719369852;-0.965747268;-0.056758279;0.217526188;0.004780271;0.03717481;-0.012981145;walk;10
21.4;-0.609953121;0.015074652;0.742932402;2.34721867;-3.48932874;1.141433417;-0.596348562;-0.122466312;0.587580055;-0.238317933;3.204608712;0.593236756;-0.924980486;-0.190740276;-0.039191739;0.161208596;-0.552427456;1.308513808;-0.94181946;-0.066438122;0.264127944;-0.003869655;0.05546459;-0.036044318;turn1;10
21.5;-0.908909729;0.037260014;0.904267038;1.95136961;-2.692259989;2.151922002;-0.898540829;-0.062062861;0.409067233;-0.638594534;3.896568024;0.568913504;-0.824439178;-0.065602602;-0.024678121;0.011629652;-0.228595423;0.614053647;-0.935441556;-0.072608288;0.297080794;0.050380601;0.013355787;-0.052363021;turn1;10
21.6;-1.076574885;-0.116653556;0.914925711;1.218721801;-1.804589925;1.491661097;-1.113518188;-0.01233989;0.110004263;-1.317510135;3.070579411;0.47499344;-0.887256984;0.086566962;0.175617;-0.647078318;-0.157683463;-1.42E-01;-0.912778254;-0.079916316;0.31895951;0.041149986;0.031940581;0.062901966;turn1;10
21.7;-1.085672618;-0.380027807;0.419533244;0.665110539;-0.648953003;-0.085385594;-1.084847995;-0.061501841;-0.036915899;-1.091070065;0.683016619;0.128015007;-1.045560722;0.314233024;0.285596443;-0.016037095;0.055511403;-0.072935563;-0.993435291;-0.054954033;0.358200284;-0.107565885;-0.019120145;0.235621357;turn1;10
21.8;-0.606785372;0.457094311;0.621289263;-0.038586125;0.679396231;-1.853763881;-1.11985033;0.090958348;-0.174579829;-0.347297742;-0.859410199;-0.049541821;-1.086361185;0.089838171;0.01361862;-0.601478723;0.242069096;-0.392697173;-1.042609462;-0.092780065;0.442562141;-0.065932176;0.053264166;0.15967588;turn1;10
21.9;-0.746972939;0.359230303;0.828545541;-0.932588277;0.830559344;-0.247634581;-1.007279898;0.126270412;-0.063170905;-0.00095449;-0.972253383;0.004104447;-0.976817637;0.032414457;0.289608612;0.01865476;0.041607148;-0.936697718;-1.04384967;-0.118895137;0.272940438;0.507629456;-0.017877494;-0.193899738;turn1;10
22;-0.580296766;0.245927684;0.753254841;-0.164752015;0.002742987;-0.062993853;-0.971980686;0.125215175;0.067479313;-0.532001904;-0.910578089;0.064612929;-0.951580164;-0.113228144;0.098048916;-0.649957999;-0.032729678;-0.827884283;-0.942819825;0.00805952;0.11534639;0.52569899;-0.117530271;-0.174247476;turn1;11
22.1;-0.548043381;0.318714764;0.723890056;0.112330087;0.072673565;0.063112302;-0.969160209;0.145771356;0.142255456;-0.421264524;-0.651451164;0.050367183;-0.907725478;-0.341829696;0.192775651;-0.872748975;-0.014439255;-0.77050842;-0.974300717;0.005269025;0.139032794;0.82998199;0.008687275;-0.184395382;turn1;11
22.2;-0.54511054;0.328572364;0.716515728;0.072390328;0.069840238;0.027792033;-0.969960487;0.152896253;0.140286635;-0.398847151;-0.487535092;0.040299375;-0.951627224;-0.266532829;0.179757507;-0.42046534;0.000671237;-0.610783972;-0.95637669;-0.013267014;0.188552109;1.120895197;-0.056313494;-0.285701814;turn1;11
22.3;-0.549701739;0.319301073;0.717320144;0.062077936;0.023160538;-0.045232629;-0.984855285;0.150474624;0.183039829;-0.529959508;-0.431921903;0.053565346;-0.92401692;-0.338852122;0.150802763;-0.965199777;-0.20582868;-0.540750763;-0.972168189;0.001004188;0.224384659;1.276305792;0.021440403;-0.383888292;turn1;11
22.4;-0.557843525;0.333636722;0.706529845;0.249131342;0.173835865;-0.07238075;-0.973140852;0.157739376;0.208661526;-0.55559906;-0.440921592;0.026898693;-0.928839225;-0.333422092;0.17723727;-0.842235633;-0.192049561;-0.202955816;-0.968842614;0.02147816;0.264405437;1.358687855;0.095675458;-0.364079814;turn1;11
22.5;-0.581733753;0.367726823;0.67945709;0.304995603;0.358140636;-0.179878558;-0.992952991;0.126616397;0.213374862;-0.558805535;-0.560843922;0.054498333;-0.92682171;-0.327870893;0.156290404;-1.195330264;-0.223684749;-0.204700123;-0.942354851;0.030704487;0.314399202;1.146603512;0.178553127;-0.320396988;turn1;11
22.6;-0.629442204;0.346496192;0.652405036;0.230215767;0.71676213;-0.25208877;-0.978305748;0.081075171;0.277414712;-0.634715158;-0.756233546;0.063496055;-0.921190247;-0.321070841;0.088423154;-1.209968846;-0.218432302;-0.198113333;-0.94016203;-0.008026744;0.367701868;1.286828975;-0.036691748;-0.470975231;turn1;11
22.7;-0.69249006;0.358882409;0.618359372;0.239726709;1.483654306;-0.176344984;-1.103147535;0.08799335;0.220555434;-0.396593035;-1.050858925;-0.057655456;-0.999903415;-0.327832022;0.227722226;-1.152629346;-0.1371597;-0.187387035;-1.037246822;-0.008793929;0.398724053;1.032030635;-0.002226856;-0.394512307;turn1;11
22.8;-0.793647027;0.336709684;0.5249675;0.151309783;3.234410961;-0.476984193;-1.025576954;-0.01078722;0.333964777;-0.395965634;-1.412866367;-0.156836852;-1.05049371;-0.21945704;0.027250956;-1.003984267;-0.20120327;0.57738558;-1.075521607;0.003669736;0.240293116;0.575841811;-0.120587379;-0.042298302;turn1;11
22.9;-1.133320597;0.434145629;0.176192052;1.661211702;3.596832826;-0.303493519;-0.860609993;-0.013310113;0.51158614;-0.856859658;-1.489869645;0.044747086;-0.946772283;-0.298765185;0.039782875;-0.706034627;-0.317324626;1.033392793;-0.946326354;-0.067116651;0.087883131;0.639708681;-0.029048698;-0.166069435;turn1;11
23;-1.058463931;0.422394489;0.369619992;2.488804401;-0.690189542;-1.88190525;-0.73748946;-0.073855331;0.661065612;-0.957987564;-1.125108807;0.546982599;-1.128108632;-0.22646769;-0.118644576;-0.38396581;-0.364320939;1.781283189;-0.976368371;-0.066007827;0.167693057;0.273773751;-0.069385103;-0.098285483;turn1;11
23.1;-0.520910625;0.28651332;0.442591169;1.272092154;-2.444128078;0.098151479;-0.475529636;-0.112610465;0.665727934;-0.661755021;0.770349249;0.744806367;-1.082533064;-0.249899134;0.028708297;-0.296695982;-0.699965677;1.755591739;-0.952875784;-0.045992731;0.224676907;0.068814044;0.003336853;-0.095759068;turn1;11
23.2;-0.537655546;0.14039618;0.736648041;1.361005426;-4.074369945;0.612302451;-0.491306746;-0.079481574;0.548991369;-0.407181682;3.213774383;0.597004614;-0.914060011;-0.22319564;0.051607367;0.133761121;-0.316695628;1.311245023;-0.945584296;-0.057513562;0.289643279;0.067927102;0.049278487;-0.116674111;turn1;11
23.3;-1.064230356;0.259452134;0.856927644;1.695381087;-4.091743878;1.11205331;-0.903922877;-0.03098855;0.380423005;-0.706653675;4.452919368;0.50059192;-0.72751431;-0.125573577;-0.017607668;0.155066487;-0.039218799;0.150260758;-0.916846146;-0.053649844;0.312049052;0.067336366;0.002374602;-0.036765198;turn1;11
23.4;-1.477026988;-0.109038379;0.559045016;0.832327964;-1.801221463;1.178628355;-1.190087919;-0.050177008;0.086498188;-1.178873983;2.741497742;0.394950151;-0.981705125;0.211991569;0.250806345;-0.669293417;-0.107555931;-0.377352714;-0.937060591;-0.058407604;0.328250384;-0.110158546;-0.055909004;0.132030112;turn1;11
23.5;-1.0416852;-0.206484078;0.237758974;-0.351722887;0.482899194;0.137710111;-1.139312723;-0.059431159;-0.048432919;0.315070939;-0.328477934;-0.019064909;-1.041501711;0.190359543;0.279868572;0.794981311;0.318586403;-0.368126721;-0.971655115;-0.06539289;0.413734529;-0.153972067;0.042799619;0.166327267;turn1;11
23.6;-0.691035405;0.500948741;0.907929996;-0.655540377;0.963972255;-0.817098381;-1.063272849;0.039152102;-0.085368413;0.408634193;-0.998537425;0.05718328;-1.110625562;0.098447195;0.054691078;0.568299504;0.042019676;-0.595011673;-1.106608324;-0.096383771;0.336062172;0.002176194;-0.067039473;-0.083622625;turn1;11
23.7;-0.572816173;0.268239611;0.752171359;-0.128023196;0.012466897;-0.018364534;-0.956346174;0.061270997;0.07869534;-0.300924566;-0.936001766;0.138478203;-0.928242521;-0.161103454;0.037098357;-0.577895822;0.04974567;-0.699237175;-0.901138497;-0.028064823;0.229354182;0.023859608;-0.078850598;-0.045499143;turn1;11
23.8;-0.544961945;0.332200005;0.733314581;-0.203868699;-0.104145726;-0.156616611;-0.987289883;0.098735784;0.111519806;-0.238486092;-0.744607586;0.095663456;-0.94482552;-0.251480061;0.223478052;-0.270946018;0.022150405;-0.899807464;-0.977057784;0.018978706;0.156090422;0.140535168;0.058406532;-0.13466383;turn1;11
23.9;-0.528305017;0.276223789;0.752949249;-0.456490333;-0.286536996;-0.282092762;-0.979077762;0.089736149;0.148373425;0.003456698;-0.556977408;0.023150966;-0.94409356;-0.24291341;0.181184259;0.010269614;0.169120609;-0.694590926;-0.963128407;-1.87693E-05;0.238717086;0.243632998;0.037889568;-0.068766142;turn1;11
24;-0.50516504;0.18873143;0.780549818;-0.263660115;-0.144949309;-0.152415903;-0.973515978;0.065058014;0.189640067;-0.219207421;-0.513531683;-0.002825842;-0.937408168;-0.265089024;0.081104837;-0.24977769;0.159022053;-0.769362556;-0.937497529;0.00170448;0.261591191;0.226393137;0.20277873;-0.05640225;turn1;12
24.1;-0.491564655;0.18850653;0.791038689;0.160617196;0.080978747;0.022355353;-0.98076998;0.071125311;0.166698776;-0.334218524;-0.61027955;-0.053631065;-0.951616696;-0.238843641;0.136839151;-0.428735553;0.140732606;-0.661509332;-0.930661871;0.007884651;0.28940791;0.239116981;0.123336992;-0.113978523;turn1;12
24.2;-0.526584069;0.255463847;0.772214984;0.093496916;0.179207601;-0.020336717;-0.985625837;0.078752235;0.246061093;-0.111668454;-0.769792072;-0.151669818;-0.90147323;-0.359935172;0.140307053;-0.658301749;0.045080858;-0.480422575;-0.92314839;0.017540964;0.308388053;0.287227561;0.070880154;-0.191929798;turn1;12
24.3;-0.534928067;0.241021404;0.801850075;-0.020863914;0.707110668;-0.078519955;-1.072901596;0.054895825;0.295375865;-0.068197767;-0.956481524;-0.334810079;-0.982056799;-0.356960285;0.112780427;-0.606358732;0.164278906;-0.349556572;-1.023928355;0.049300996;0.357954619;0.330364993;0.09139085;-0.221622904;walk;12
24.4;-0.617455083;0.29058011;0.772720048;-0.281737958;2.372232918;-0.498239372;-1.172131004;0.086234217;0.199121783;0.624066079;-1.287787075;-0.61481428;-1.109095253;-0.298093037;0.318264232;-0.617293872;0.274068698;-0.075816271;-1.169292903;0.072964687;0.363216128;0.359843397;-0.169406986;0.147169022;walk;12
24.5;-0.939400843;0.228888311;0.487987907;-1.257467337;4.163327976;-1.768059403;-0.952524657;0.026381177;0.361697013;0.064330009;-1.650426633;-0.417745479;-0.961503729;-0.165980099;-0.130128307;-0.591951378;0.025508654;0.723814779;-0.917299311;-0.082767712;0.291831278;0.378677009;-0.098778686;0.207482819;walk;12
24.6;-1.180044117;0.253639051;0.513159667;0.332901993;2.852079785;-2.178183418;-0.830160545;-0.016358121;0.482271398;-0.497734396;-1.628682943;0.229192355;-1.037176441;-0.296320849;0.093739288;-0.541215131;-0.573038499;1.385278526;-0.975482518;-0.123124904;0.094089446;0.109152176;0.031516695;0.009170233;walk;12
24.7;-0.605696183;0.235023892;0.593448797;1.449590527;-1.119202623;-0.429751913;-0.487693735;-0.166944186;0.708890763;-0.26781266;0.075034141;0.632016713;-1.11122491;-0.291743496;-0.239369596;0.751999232;-0.56157877;1.736270003;-0.967283141;-0.117800164;0.192120496;0.324116872;-0.014191246;-0.103231476;walk;12
24.8;-0.591150469;-0.167432742;0.639942002;2.664379969;-2.960938713;1.073715195;-0.468932589;-0.191475321;0.67716003;-0.611720405;2.268087068;0.964888301;-0.981441389;-0.215694182;-0.186777507;-0.35961658;-0.646976655;1.499524621;-0.935132445;-0.07784802;0.214636483;0.189571556;-0.023076407;-0.069968267;walk;12
24.9;-0.781506935;-0.055675886;0.803134621;2.55619984;-3.085745041;1.313012022;-0.809000781;-0.137258329;0.502151725;-0.866276167;3.375454233;0.896024411;-0.901420184;-0.113991965;-0.001922455;-0.61565688;-0.426457783;1.113055786;-0.94126946;-0.076312068;0.254636963;0.215449286;0.010254061;-0.085663648;turn2;12
25;-0.818436297;-0.059578426;1.015834561;1.526677845;-2.094332547;1.902881902;-1.011603984;-0.0866462;0.243666996;-0.888445604;3.323944051;0.574459745;-0.871006649;-0.006895666;0.110779561;-0.530011974;-0.104662243;0.352599538;-0.937148598;-0.096077728;0.309458846;0.17781135;0.065921699;-0.054060242;turn2;12
25.1;-0.979015688;-0.162349665;0.805454774;0.957969668;-1.529711252;1.004536215;-1.07857437;-0.023895377;0.029219693;-1.001879425;2.30073841;0.297033833;-1.003827815;0.243518915;0.222770834;-0.338889231;-0.200753135;0.099643411;-0.916412663;-0.091280335;0.337082698;0.098698364;0.086949067;0.076637282;turn2;12
25.2;-0.891724818;-0.064698252;0.384350386;0.68539731;-0.586496115;-0.700012472;-1.020130036;0.006729471;-0.067384374;-1.168878755;0.146924159;0.094011821;-0.853495941;0.318578262;0.104921592;-0.708403872;0.035545933;-0.108791988;-0.981616558;-0.074136971;0.387401091;0.046231851;0.031475273;0.133373492;turn2;12
25.3;-0.627185542;0.411835147;0.787742262;-0.631202491;1.173457255;-2.371618126;-1.167982494;0.10182658;-0.27144686;-0.456443563;-0.922686064;-0.002354706;-1.177941505;0.153843185;0.339409929;-0.260508169;0.106814441;-0.788179626;-1.127819047;-0.159140277;0.424539881;0.193738352;-0.200796979;0.015674417;turn2;12
25.4;-0.695290978;0.331641062;0.757103115;-0.766020317;0.174245062;-0.113881861;-0.940134994;0.170819127;0.055957225;-0.19862153;-1.17241337;0.043735148;-0.904253624;-0.12595395;0.029377369;0.19448393;0.263214179;-1.157180404;-0.939697489;-0.071398404;0.180949305;0.769909705;0.038188028;-0.387856485;turn2;12
25.5;-0.546533863;0.232171896;0.764193542;-0.135324954;-0.108996431;-0.069795391;-0.979950406;0.14563921;0.153280865;-0.407419722;-0.930662625;0.106794489;-0.944233623;-0.276120686;0.247243873;-0.989546095;-0.112570437;-0.970585143;-0.975696308;-0.021834948;0.101441886;0.9135221;-0.140325566;-0.281304495;turn2;12
25.6;-0.521498761;0.258900404;0.757665947;0.048372642;0.005710434;-0.010841575;-0.968400241;0.138181537;0.150564395;-0.48836519;-0.590968996;0.016895515;-0.945139915;-0.263640003;0.122099388;-0.528550532;-0.057141081;-8.17E-01;-0.962407975;-0.035011644;0.191549072;1.216529209;-0.140831378;-0.32197595;turn2;12
25.7;-0.531968417;0.293026487;0.743107863;0.161036706;0.115269157;0.017804032;-0.987656914;0.177834821;0.169704032;-0.406693286;-0.589983483;0.029225719;-0.915044435;-0.341446813;0.223279951;-1.198344699;-0.218656562;-0.689795449;-0.956366166;-0.002712258;0.224951083;1.270527653;0.083002367;-0.375094542;turn2;12
25.8;-0.546584239;0.292270479;0.733805349;0.15964977;0.213263843;-0.128096892;-0.964789309;0.155678069;0.251057118;-0.517456146;-0.545437967;0.025117906;-0.905414228;-0.384676995;0.136422488;-0.821067252;-0.128582857;-0.353369054;-0.96027783;0.014005072;0.24897219;1.321766978;0.151247809;-0.337499887;turn2;12
25.9;-0.573684794;0.290057669;0.718919616;0.318411266;0.501142339;-0.329911267;-0.988923716;0.126011548;0.243638121;-0.802865292;-0.616754158;0.082669873;-0.919845692;-0.367182348;0.131090511;-1.169332046;-0.225059401;-0.350570504;-0.925482697;-0.001787668;0.327979114;1.278939933;0.170574977;-0.394091169;turn2;12
26;-0.64295317;0.316330623;0.660480016;0.297663784;1.028567477;-0.284157304;-0.980765305;0.108879927;0.268448846;-0.748769883;-0.869354246;0.057062242;-0.920831925;-0.317364045;0.109055519;-1.228581556;-0.177236111;-0.294459782;-0.926637868;-0.027764652;0.378498829;1.130398826;0.03121926;-0.516209145;turn2;13
26.1;-0.716593091;0.274533418;0.618476495;0.06681964;1.696114448;-0.294149152;-1.088662768;0.081421308;0.244513736;-0.481964095;-1.226073764;-0.124665645;-0.91886085;-0.323613836;0.193236679;-1.533512772;-0.15668636;-0.243937071;-0.950873931;0.006776012;0.431386191;0.997026771;-0.047165273;-0.454746838;turn2;13
26.2;-0.839918028;0.316430982;0.515983758;-0.153085401;4.120558593;-0.521456483;-1.070511557;0.04094256;0.316713148;-0.194529442;-1.512671698;-0.278591801;-1.162281771;-0.302581788;0.046733007;-0.90774467;-0.138784504;0.541217442;-1.246732318;-0.041505119;0.265021022;0.833982616;-0.306713029;0.038720481;turn2;13
26.3;-1.105397204;0.32600426;0.134072878;1.144162476;3.680783087;-0.852055604;-0.775054988;-0.076278571;0.64998131;-1.375019591;-1.505406882;0.065624865;-0.892726498;-0.45122522;-0.00108273;-0.940790149;-0.339421655;1.05445025;-0.932169672;-0.040937283;0.1243374;0.345584734;0.063810862;-0.142027279;turn2;13
26.4;-1.116569442;0.23769629;0.333911928;2.073637117;-0.870422321;-1.232340801;-0.666465749;-0.05849293;0.593251464;0.073316058;-0.597408739;0.26999984;-1.015502564;-0.257739017;-0.066807157;0.452643515;-0.271915084;1.61108848;-0.927267829;-0.096661966;0.164117685;0.160002743;0.058302834;-0.123167984;turn2;13
26.5;-0.596614884;0.2988186;0.32749894;1.068854436;-2.543406623;0.275534796;-0.533668817;-0.057144629;0.688733077;-0.498112343;0.732838901;0.484876456;-1.081257399;-0.250765287;-0.03666677;-0.160442424;-0.674353047;1.583094304;-0.946315727;-0.052714626;0.251661787;-0.184185684;-0.009865548;-0.035175072;turn2;13
26.6;-0.670264203;0.127684654;0.666047688;1.417522574;-3.821587623;0.904023259;-0.595550811;-0.065383123;0.589348851;-0.455246696;2.771423446;0.628275757;-0.985751932;-0.196938944;0.046328144;0.293822929;-0.505441199;1.5681419;-0.922277102;-0.081319772;0.29545934;-0.244424477;0.022517474;0.049844951;turn2;13
26.7;-0.925316768;0.180902059;0.87793845;1.748812801;-3.832943869;1.278616341;-0.887697019;-0.084093619;0.392741651;-0.456260957;3.950086011;0.5214309;-0.845598838;-0.065034952;0.034997817;0.160683628;-0.26946223;0.810311031;-0.923438714;-0.086556489;0.307156614;-0.186725263;-0.04085907;0.073307706;turn2;13
26.8;-1.013192403;0.179971491;0.864496091;0.903052918;-2.288797298;1.772610803;-1.100045914;-0.072229345;0.117684026;-0.517213148;3.463080294;0.285078676;-0.85273888;0.096917803;0.144844526;-0.329455227;-0.194246452;0.213168097;-0.897547027;-0.091213745;0.382412564;-0.142108882;-0.076502864;0.113656709;turn2;13
26.9;-1.089865851;-0.021365205;0.469149723;0.42454728;-0.939263676;1.295428191;-1.075425723;-0.079756986;-0.071708058;-0.351488803;1.562976477;0.13038866;-0.994842279;0.335397053;0.219023951;0.434963297;0.063888824;-0.073672206;-0.963573101;-0.050350075;0.412702392;-0.342481381;0.064327997;0.250047389;turn2;13
27;-0.807493214;0.076280854;0.249362868;-1.078341884;1.343499941;0.688860138;-1.052619331;0.020752662;-0.196912299;1.552208438;-0.807427165;-0.093000206;-0.914718233;0.312049642;0.257241377;0.708868874;0.187337322;-0.203833222;-0.94349407;-0.102667724;0.447498398;-0.290172038;0.137945393;0.228857869;turn2;13
27.1;-0.76439252;0.630343877;0.935420404;0.348734626;2.170282193;-0.798257385;-1.096288616;0.055781078;-0.025956889;0.192594365;-1.513144665;0.240253507;-1.132636687;0.133000001;0.085232126;0.123844878;0.020910023;-0.670754069;-1.158944052;-0.094321991;0.309975762;-0.08448542;-0.163105206;-0.158044671;turn2;13
27.2;-0.594400427;0.34597746;0.727867095;-0.517592011;0.147136161;-0.141557195;-0.94773371;0.070800804;0.215950657;-0.080606824;-1.05129959;0.270594201;-0.956028531;-0.3190257;0.043342675;-0.215074684;-0.138900299;-0.872956103;-0.959150639;0.029181048;0.148035179;0.119418232;-0.020366594;-0.031676304;turn2;13
27.3;-0.540335889;0.384581572;0.689967246;-0.142941197;0.053678099;-0.014762485;-0.991251515;0.095166224;0.083748966;-0.321644416;-0.705204507;0.188514148;-0.956641176;-0.133328728;0.232616198;0.133781665;0.198839247;-0.731669826;-0.942843333;0.005261323;0.180228693;0.363121175;0.122035187;-0.04142964;turn2;13
27.4;-0.554230053;0.365448218;0.695324367;0.019807982;-0.028030893;-0.046820498;-0.978861631;0.088964009;0.137855433;-0.277884039;-0.629651818;0.115331305;-0.960380885;-0.135348374;0.183347588;-0.751519321;0.071645058;-0.688517956;-0.938083652;0.046122839;0.215282317;0.329792277;0.045685773;0.042270923;turn2;13
27.5;-0.548977776;0.370631609;0.691720395;0.084742467;0.03037471;-0.036499685;-0.974706926;0.087210231;0.187653809;-0.176745468;-0.527703301;0.044184875;-0.962057926;-0.216524492;0.151291417;-0.676192852;0.153955794;-0.608033719;-0.95168195;0.035882402;0.236757973;0.369404685;0.201531485;0.002762368;turn2;13
27.6;-0.55696551;0.372032057;0.682871127;0.079774407;0.054591961;-0.074457998;-0.974631652;0.0854791;0.219147333;-0.382748706;-0.547813556;0.043725468;-0.947727864;-0.244713645;0.118662001;-0.245588166;0.252331046;-0.6669368;-0.935394802;0.036531222;0.264405998;0.42289513;0.180951739;-0.076245434;turn2;13
27.7;-0.559624142;0.38182515;0.678747497;0.119152948;0.158759921;-0.129165592;-0.98736993;0.084972475;0.229893122;-0.434004434;-0.661213379;0.010009944;-0.951956037;-0.24973321;0.136197706;-0.710989493;0.150918769;-0.679727292;-0.942094974;0.0503296;0.300682306;0.455375888;0.113753534;-0.135084482;turn2;13
27.8;-0.598415946;0.380271234;0.67509894;0.083694102;0.628895106;-0.174943502;-1.037931041;0.06582789;0.286943236;-0.326990804;-0.824172291;-0.119525053;-0.957848861;-0.313940385;0.094502645;-0.564575852;0.178643811;-0.516139051;-0.983338884;0.056343995;0.343958878;0.410996871;0.155927159;-0.214153296;turn2;13
27.9;-0.655426007;0.395226388;0.676916553;-0.090346777;2.079371262;-0.568792078;-1.168548517;0.040203092;0.174099274;0.321510863;-1.15296044;-0.356296147;-1.136454837;-0.2036778;0.227682082;-0.181317629;0.168037897;-0.01840868;-1.158069692;0.048928594;0.293067624;0.287584941;-0.004555402;-0.005605404;turn2;13
28;-0.901605085;0.23522555;0.458941379;-0.133126242;4.155421893;-0.710242226;-1.055600419;-0.071628543;0.225545402;-0.093799001;-1.734636451;-0.383723754;-1.008756143;-0.047369359;-0.028178167;-0.934219327;-0.149849034;0.67088565;-0.930007252;-0.026112075;0.205167893;0.305533716;0.005474591;-0.067873654;turn2;14
28.1;-1.247264392;0.601124192;0.605850082;1.230873962;2.517200428;-1.3813563;-0.889776716;0.022800192;0.551865009;-0.557723689;-1.777719141;0.002357831;-1.134402648;-0.233780764;0.114751673;-0.216723989;-0.444356972;1.67262371;-0.983321137;-0.044248612;0.095452182;0.050403327;0.027543957;-0.019691403;turn2;14
28.2;-0.457079008;0.496464225;0.553606499;0.899827555;-2.109759991;-0.889909441;-0.482334053;-0.02767749;0.641283417;-0.226585576;0.242663546;0.334741068;-1.109299409;-0.251059381;-0.040513633;0.405646141;-0.537349408;1.876279179;-0.97860439;-0.017886633;0.188828986;-0.196954446;-0.083937209;-0.00852221;turn2;14
28.3;-0.444594722;0.287448006;0.641320572;0.963362187;-3.791039723;0.715846999;-0.407368134;-0.048940913;0.573797677;-0.021970035;2.960848852;0.411556876;-0.913740018;-0.231684762;0.04041978;0.332543798;-0.636536242;1.279897311;-0.929330128;-0.074741863;0.228848207;-0.196585665;-0.00356478;-0.053587211;turn2;14
28.4;-1.011275736;0.265506986;0.899360881;1.697846584;-4.239659582;1.391903908;-0.81810475;-0.024767583;0.432201517;-0.337260509;4.698434705;0.456253999;-0.729871008;-0.252362086;-0.051359026;0.665930371;-0.158070043;0.087133032;-0.946985527;-0.064418834;0.258297327;-0.153799291;0.025523539;-0.027597909;turn2;14
28.5;-1.688417427;0.024674205;0.502926037;0.669081612;-1.85257859;2.170852021;-1.270743797;-0.066347808;0.118295418;-0.639062875;3.060283188;0.344373793;-1.000997351;0.246139312;0.175001048;-0.259618502;-0.035740248;-0.471819026;-0.957103812;-0.054354745;0.298362913;-0.198912324;-0.074230287;0.142763141;walk;14
28.6;-1.011682052;-0.185685671;0.351119253;-0.349263129;0.918535689;-0.006145277;-1.157673485;-0.058655596;-0.044786854;0.673663309;-0.592604947;0.025643356;-1.084500667;0.198477941;0.31586028;1.084323855;0.229385222;-0.463751233;-1.001859635;-0.052444233;0.364042957;-0.282231546;-0.048854372;0.20424663;walk;14
28.7;-0.835505378;0.400263361;0.782699331;-0.794954458;0.866964249;-0.610618009;-1.024369542;0.04635249;0.005238614;0.432147822;-1.209920792;0.114400377;-1.031965287;0.060022227;0.048670936;0.194638752;-0.041347118;-0.465373851;-1.095438743;-0.095537126;0.300589882;-0.038997993;0.009857346;-0.067282323;walk;14
28.8;-0.560776347;0.286672122;0.748703409;-0.237481369;-0.096687443;-0.137485166;-0.954620064;0.066316111;0.135581855;-0.241910545;-0.981051238;0.205407984;-0.943352749;-0.214616263;0.054871619;-0.447525574;-0.003703238;-0.833916042;-0.921624315;0.012118917;0.147476397;-0.128464327;0.026038169;-0.077032522;walk;14
28.9;-0.529933465;0.312326443;0.743367651;-0.081934522;-0.108908875;-0.112020819;-0.989867942;0.096520204;0.160161209;-0.174915641;-0.717598837;0.130548565;-0.941908227;-0.266089519;0.203794805;-0.22186047;0.101972085;-0.87805913;-1.005621748;0.021576597;0.120583683;0.086833544;0.026117158;-0.078564956;walk;14
29;-0.519636112;0.278587678;0.750205527;0.029353594;0.048613817;-0.020755528;-0.983920044;0.091868886;0.159702461;-0.216455151;-0.585133824;0.048757812;-0.965436651;-0.213419859;0.16324798;-0.302663924;0.22954464;-0.762661597;-0.954559526;0.025386258;0.196572485;0.112517996;0.050880501;0.053303193;walk;14
29.1;-0.535603024;0.316523933;0.729172984;0.12158109;0.173373009;-0.00057897;-0.967586684;0.098952204;0.200981143;-0.232941596;-0.645709404;-0.014031954;-0.938165186;-0.26644052;0.162719474;-0.495129428;0.179063572;-0.518368044;-0.950328058;0.028774272;0.204184395;0.166540915;0.249808905;0.002528795;walk;14
29.2;-0.544822327;0.299693453;0.732965488;0.015857387;0.191872016;-0.116400669;-0.974334725;0.06848123;0.289338913;-0.284252922;-0.622544397;-0.039566927;-0.936359632;-0.339197411;0.065663893;-0.337338715;0.258973261;-0.570124473;-0.952095583;0.039961962;0.245615591;0.289517928;0.189497276;-0.100806183;walk;14
29.3;-0.569527446;0.305272492;0.718224189;0.027893222;0.579444534;-0.117303636;-0.999663801;0.079494259;0.283565746;-0.239476183;-0.680794506;-0.169292999;-0.949624757;-0.321615707;0.125891195;-0.445711966;0.198275991;-0.494752085;-1.001350314;0.011233261;0.251743742;0.414903127;-0.055250094;-0.194039369;walk;14
29.4;-0.635375032;0.314591191;0.688781622;0.019730476;1.212081177;-0.30831807;-1.066723166;0.063087157;0.29236116;0.116937601;-0.840672146;-0.352791174;-0.96952167;-0.334537686;0.143821407;-0.617299521;0.176635475;-0.300691357;-1.015425642;0.043931091;0.359865101;0.285211705;0.006225165;-0.204363843;walk;14
29.5;-0.721464764;0.346397896;0.624067863;-0.351371617;2.902948462;-0.784722598;-1.141050904;0.030738931;0.117850029;0.489788748;-1.370604576;-0.530607919;-1.128036178;-0.069957705;0.158564259;-0.018149154;0.191517804;0.393696204;-1.093735197;0.015615074;0.229703089;0.135585444;-0.227346875;0.113197395;walk;14
29.6;-1.240402475;0.354909986;0.43896077;-0.172033649;3.678122074;-1.926485439;-1.014369256;0.020620841;0.382606165;-0.290695764;-2.016418512;-0.183441418;-1.049432837;-0.133323765;0.009248167;-0.641745444;-0.283973357;1.22E+00;-0.945757183;-0.096886868;0.104799812;0.325350059;-0.045149593;0.000616579;walk;14
29.7;-0.914984243;0.360412747;0.605524976;0.261100582;0.208087769;-1.593384016;-0.663397517;-0.041481198;0.685408829;-0.201885983;-1.321221295;0.18404516;-1.124765959;-0.312958483;0.033852932;0.391961668;-0.484962067;1.859700626;-0.975402023;-0.065203452;0.167449211;-0.060648583;-0.170051962;0.036470911;walk;14
29.8;-0.350620518;0.265208167;0.561778081;0.500127044;-2.066311296;0.357340294;-0.37753488;-0.053789437;0.655053704;0.145860922;1.098558559;0.134099689;-1.037918149;-0.239649039;0.009905481;0.402086836;-0.761915002;1.558150783;-0.945544299;-0.061496554;0.209800672;-0.1392897;-0.116249683;-0.00039293;walk;14
29.9;-0.520529918;0.209904986;0.718474909;1.257449319;-3.481201117;1.77764884;-0.442465367;-0.038256356;0.571248692;0.110806312;3.679353055;0.132986544;-0.857673995;-0.230169091;-0.003270027;0.631467685;-0.402096041;0.918849148;-0.933094054;-0.061802243;0.26539231;-0.203733781;-0.052056501;0.004110978;walk;14
30;-1.175145708;0.393584015;0.885126468;1.591674261;-3.45133871;1.876801536;-0.978825661;0.036839199;0.381767531;-0.400411571;4.733829886;0.389211909;-0.741878173;-0.151358609;-0.041364504;0.224479011;-0.093365432;-0.182184355;-0.93635252;-0.06550302;0.297545051;-0.332540517;0.035197085;0.11104914;walk;15
30.1;-1.746840908;-0.262453039;0.375234219;0.652585498;-1.336240213;2.226726861;-1.25083167;-0.063971888;0.042846974;-0.54651224;2.309478208;0.362727609;-1.088981752;0.319390589;0.353654835;0.158189789;-0.061945376;-0.550379244;-0.953637057;-0.066999566;0.351619724;-0.305240012;-0.01266365;0.208255457;walk;15
30.2;-0.694656372;0.058153266;0.628778393;-0.487931282;1.141732315;-0.534773364;-1.122479691;-0.054285587;-0.117671489;0.887732464;-0.950839526;0.009301114;-0.995986571;0.124420654;0.125582301;1.012305067;0.393655003;-0.607115095;-0.984386016;-0.022005198;0.424531535;-0.393592813;-0.020282968;0.277780624;walk;15
30.3;-0.902730444;0.308788738;0.725864948;-0.78949985;0.878341441;-0.341437198;-1.029326207;0.060946847;0.012696289;0.366516846;-1.205314689;0.107246246;-1.101076793;0.09084786;0.108271342;0.314539095;-0.089508875;-0.746802003;-1.07705089;-0.105761986;0.275466444;0.020938563;-0.186089323;-0.067845289;walk;15
30.4;-0.559847074;0.275951403;0.752466341;-0.299164486;-0.099951369;-0.159010317;-0.954883057;0.074876416;0.15685101;-0.189543572;-0.944852613;0.18130353;-0.917752086;-0.273093795;0.078441334;-0.444233887;-0.155843214;-0.516689626;-0.921640033;0.007522523;0.212957378;-0.022955109;0.053297449;-0.069933132;walk;15
30.5;-0.524978217;0.292834642;0.745984484;-0.094831889;-0.066250017;-0.068105765;-0.988806029;0.104714227;0.137967938;-0.160473969;-0.707378369;0.084753473;-0.938535008;-0.235458008;0.184206958;-0.14028627;0.214805668;-0.843614708;-0.986526917;0.040565078;0.184111557;0.089233408;0.126562299;-0.027104236;walk;15
30.6;-0.52281251;0.2704618;0.754313755;-0.171374428;-0.090200972;-0.098317272;-0.973097669;0.084713474;0.170302902;-0.077044545;-0.647466467;0.017807589;-0.954184566;-0.247659366;0.180729762;-0.40522467;0.142491198;-0.707870256;-0.932309379;0.036110176;0.213673619;-0.022405556;0.178570876;0.042537537;walk;15
30.7;-0.520889671;0.256465464;0.765127282;-0.130572567;0.015300367;-0.109091336;-0.975917077;0.083938844;0.250992755;-0.208964725;-0.608049614;-0.005090252;-0.931360989;-0.322504576;0.12476819;-0.147275981;0.295691107;-0.768992542;-0.964109936;0.036965891;0.238977713;0.035121701;0.142171964;0.010848083;walk;15
30.8;-0.532314162;0.233811738;0.770332782;-0.028410305;0.357167278;-0.151341888;-1.010072372;0.071856341;0.240202847;-0.267308527;-0.637444577;-0.060175479;-0.958830092;-0.31991248;0.116704284;-0.257666536;0.239057022;-0.624486106;-0.973962849;0.03176403;0.27649716;0.089903798;0.0487401;-0.097964253;walk;15
30.9;-0.584134968;0.249622411;0.742216085;0.024460069;0.943054095;-0.169692298;-1.012387657;0.081256194;0.240428518;0.027278956;-0.854582163;-0.208834694;-0.970059753;-0.280718798;0.129646701;-0.352446662;0.142734021;-0.299187753;-0.9817837;0.011474324;0.312255145;0.279482054;0.031669321;-0.205911187;walk;15
31;-0.664657129;0.256316171;0.702258195;-0.195810796;1.795507056;-0.450838247;-1.09051778;0.101493059;0.217036629;0.623795109;-1.236867909;-0.412227877;-1.026546988;-0.271382335;0.293380949;-0.541608999;0.043519933;-0.109809793;-1.079088703;0.029354596;0.312624665;0.347266238;-0.16334975;-0.05233127;walk;15
31.1;-0.793361612;0.232307776;0.512155515;-0.920284532;3.495696178;-1.11784675;-0.918484025;-0.00554368;0.455609085;0.078200283;-1.498395517;-0.404824613;-0.957999828;-0.245475665;-0.124896346;-0.664523105;0.167660096;0.601559325;-0.953298969;0.04151147;0.328444031;0.012317772;-0.139141013;0.258127886;walk;15
31.2;-1.174640668;0.069947334;0.280313772;-0.630671249;3.41558084;-1.269910623;-0.868478331;-0.002579039;0.509875635;-0.434920209;-1.444199266;-0.191373779;-0.982732809;-0.296196225;0.109602595;-0.534034133;-0.052999989;0.829317498;-0.982702575;-0.064323647;0.139816465;0.000360033;-0.130403787;0.13390282;walk;15
31.3;-1.101763261;0.21268243;0.487134231;0.675459083;0.928289589;-0.883777336;-0.723991028;-0.058717174;0.625991526;-0.337093783;-0.951633715;0.095501704;-1.086263827;-0.188020108;-0.093128561;0.487142089;-0.197166562;1.483231747;-0.963046044;-0.045714526;0.162723799;0.032137755;-0.07964904;0.043620299;walk;15
31.4;-0.606109336;0.166312403;0.492486577;0.85759264;-2.530777455;0.560840166;-0.501815024;-0.058300282;0.678424257;-0.148035129;0.977149918;0.228631608;-1.09818994;-0.25702632;0.03180994;0.219363994;-0.627748472;1.562249314;-0.972397447;-0.009127927;0.225945022;-0.108693609;-0.064929386;0.01136929;walk;15
31.5;-0.685762552;0.156365458;0.61537788;1.178589527;-3.993401403;1.404306704;-0.557583025;-0.047356486;0.594679314;0.073696748;3.125858461;0.176541247;-0.925353466;-0.221585406;0.043943296;0.628836162;-0.477166564;1.196655364;-0.937191739;-0.047469118;0.285051492;-0.056564377;0.14574689;-0.08766568;walk;15
31.6;-1.033210832;0.268930625;0.769174656;1.520878831;-3.756415472;1.784120368;-0.886233624;-0.012898532;0.43098711;-0.181493628;4.190675022;0.305561604;-0.806762826;-0.106552665;-0.054946401;0.510151296;-0.197786342;0.318139988;-0.953056815;-0.042209329;0.312786252;-0.040663955;0.141041433;-0.052240817;walk;15
31.7;-1.385431439;-0.007597916;0.624135589;1.144098206;-1.563522932;1.929056947;-1.169251331;0.018355432;0.160262954;-0.974333766;3.016703643;0.532995574;-0.949734282;0.151801609;0.145200032;-0.349516439;-0.109199861;-0.38454701;-0.956667899;-0.037118101;0.342641994;-0.007810594;0.052197757;0.02527801;walk;15
31.8;-1.310255031;-0.293140392;0.098168331;-0.154302279;0.375849973;0.589735876;-1.06098152;-0.118671884;-0.039886925;0.335248227;-0.126171903;0.18440753;-0.990043914;0.261987949;0.342493664;0.687278452;0.008054018;-0.632861771;-0.944533623;-0.0059927;0.390529939;-0.188421972;-0.068057052;0.11889349;walk;15
31.9;-0.373964517;0.439969809;1.109890095;-0.170863064;1.545858321;-0.597160019;-1.115510168;0.005511695;-0.167665802;0.331148832;-0.897853128;0.033826667;-1.207631359;-0.001929943;-0.025141815;1.243804669;0.543678397;-0.946028392;-1.076578881;-0.024790255;0.40460947;-0.330335057;-0.29690925;0.146693554;walk;15
32;-0.602928814;0.376277849;0.718019511;-0.932651393;0.028916701;-0.405185685;-0.972617269;0.10645396;0.01044153;-0.395594578;-1.024547966;0.174747678;-0.833763349;-0.167263996;0.016784887;-0.336300066;-0.125239231;-1.243321072;-0.896467949;-0.056386685;0.225594336;0.150652285;0.064999117;-0.194833897;walk;16
32.1;-0.56087232;0.219476615;0.768903823;-0.61373415;-0.368431083;-0.386238536;-0.980427531;0.071790269;0.129542475;-0.146349654;-0.872369588;0.108770288;-0.944791019;-0.283407916;0.297802526;-0.187748269;0.038050424;-0.800094983;-0.984878989;0.030563824;0.197601559;0.046510716;-0.062276766;-0.056296332;walk;16
32.2;-0.514541348;0.222567335;0.77296397;-0.158195043;-0.082837436;-0.01765701;-0.979831451;0.103146806;0.154919946;-0.031255902;-0.621726555;-0.0074473;-0.940451487;-0.284878611;0.045643736;0.187479366;0.137276732;-0.520253102;-0.956899705;0.00178068;0.246056553;0.086345368;0.045875711;-0.000154242;walk;16
32.3;-0.510327301;0.218627166;0.779589913;-0.035003644;-0.029623127;-0.023678475;-0.977685417;0.089197755;0.167961697;-0.054093955;-0.588067187;-0.03893144;-0.918930939;-0.340744408;0.172280471;-0.618739251;-0.111596157;-0.456304559;-0.956513034;0.043233407;0.231056448;0.015652428;0.206268039;-0.029628446;walk;16
32.4;-0.50847305;0.213873696;0.784349467;0.079617039;0.132813111;0.006838762;-0.972364463;0.080217037;0.238789334;0.026443784;-0.563552973;-0.079895953;-0.925974034;-0.340453771;0.107103438;-0.23107925;0.082475751;-0.328809664;-0.960885401;0.018942794;0.244129838;0.099645315;0.136678118;-0.001341384;walk;16
32.5;-0.527381785;0.230061919;0.77190233;0.130904775;0.312559671;-0.009118045;-0.987938054;0.072051228;0.261973055;-0.165812161;-0.528036151;-0.083200443;-0.92014523;-0.377655512;0.104965442;-0.450877624;0.048157323;-0.369524224;-0.940990553;0.022190868;0.313543812;0.060791997;0.157808135;-0.098760992;walk;16
32.6;-0.56273656;0.242770607;0.748171323;0.143734516;0.716054373;-0.038783965;-1.004293133;0.066569805;0.245417074;-0.10337444;-0.727342942;-0.163150046;-0.952532716;-0.298504288;0.100871067;-0.467576232;0.073292152;-0.325791024;-0.975158138;0.008158022;0.328630969;0.277797913;0.111557574;-0.266053365;walk;16
32.7;-0.634214386;0.273471487;0.709319411;0.05118591;1.418348964;-0.179795604;-1.073127638;0.092255833;0.232347656;0.36038587;-1.003851632;-0.337199667;-0.973593946;-0.329203171;0.196716268;-0.668038415;0.080832717;-0.246889394;-1.00794909;0.007798611;0.394532615;0.347851226;0.003261496;-0.201336529;walk;16
32.8;-0.718921793;0.300622985;0.622637139;-0.400374899;3.169395954;-0.843384413;-1.08555146;0.042210943;0.212787651;0.565899214;-1.572082268;-0.463919979;-1.070345104;-0.072731587;0.144415073;-0.541852806;-0.012612386;0.479204784;-1.054514292;0.057276691;0.287720294;0.085723735;-0.22380886;0.149913283;walk;16
32.9;-1.219108848;0.191881358;0.386237347;-0.324529474;4.370502382;-1.352691706;-0.956920561;-0.041130263;0.457169889;-0.614932718;-1.826774039;-0.213433627;-1.033841809;-0.250534695;-0.082186388;-1.139495165;-0.158538754;1.191991864;-0.945271815;-0.092555515;0.186582332;0.138787992;-0.041638698;0.149563941;walk;16
33;-1.09748299;0.357259721;0.582345987;0.761666307;0.783717739;-1.356347086;-0.721517849;-0.019441333;0.670998056;-0.419743815;-1.165993287;0.100980039;-1.141283995;-0.319280825;0.066416524;0.415505438;-0.433363741;1.825677366;-1.003006523;-0.06445224;0.168106492;0.054303456;-0.013531194;0.019578796;walk;16
33.1;-0.5039306;0.209506154;0.441458432;0.70738712;-2.726380441;0.026856496;-0.424611596;-0.048407797;0.686886342;0.002707777;1.033145297;0.206962033;-1.070287866;-0.240614217;0.005768634;0.49911054;-0.69796192;1.688715667;-0.947170362;-0.019740032;0.215940221;-0.169631682;-0.037002727;0.055955714;walk;16
33.2;-0.612972663;0.167030067;0.599898064;1.223977815;-3.753380658;1.417836589;-0.498520376;-0.055730439;0.595490582;0.197023386;3.300703133;0.10660415;-0.893685963;-0.20862064;0.019901348;0.647343531;-0.553345193;1.17020344;-0.936733156;-0.062132876;0.263453445;-0.132232159;0.07530783;-0.040943643;walk;16
33.3;-1.119595979;0.21446969;0.727858112;1.261237664;-3.200872505;1.935760477;-0.886114783;-0.047873044;0.420025089;0.025885079;4.111451003;0.119809069;-0.759955179;-0.057722516;0.000681396;0.721583149;-0.161873059;0.323963066;-0.926732587;-0.02664793;0.284024416;-0.363238443;0.015951928;0.11321763;walk;16
33.4;-1.300408539;0.078548287;0.631414146;0.654714274;-1.747335366;2.188671855;-1.121687604;0.01119921;0.157181566;-0.476150798;2.939963693;0.285050675;-0.933461798;0.145453092;0.139620153;-0.10534997;0.049932044;-0.369887606;-0.932795489;-0.050139301;0.335697106;-0.320697655;-0.032394412;0.19869205;walk;16
33.5;-1.087221865;-0.075756826;0.305477529;0.251281581;-0.213738042;0.906652902;-1.073163658;-0.085766279;-0.03763073;-0.0653955;0.491460493;0.191158176;-1.024072998;0.284656557;0.234456707;0.529491816;0.12786789;-0.487788246;-0.974631031;-0.058984155;0.391597172;-0.306385077;0.044619066;0.209343363;walk;16
33.6;-0.438379693;0.283655623;0.74873064;-0.496763327;1.628323579;-0.165249556;-1.132271037;-0.055685694;-0.224723874;0.646510286;-0.91342535;0.045707414;-1.138707882;0.079251623;0.01629951;0.677799567;0.303513787;-8.63E-01;-1.047971845;-0.022047092;0.459147495;-0.377094237;0.044066188;0.232923628;walk;16
33.7;-0.794094055;0.447455907;0.840631416;-0.605930648;0.95916986;-0.517548911;-1.011020737;0.062774321;-0.074545883;0.527879058;-1.122845301;0.142892449;-0.986168911;0.109896452;0.200085573;0.114210965;-0.084475261;-0.848024096;-1.014283499;-0.070200377;0.24938013;-0.074293057;-0.170478492;-0.060894318;walk;16
33.8;-0.577461046;0.278487031;0.742207678;-0.437757618;-0.180494602;-0.261649761;-0.965976351;0.053977917;0.115582505;-0.038160389;-1.018053214;0.238556446;-0.928272858;-0.193451279;0.058785444;-0.076599808;-0.138461023;-0.691119594;-0.915266256;0.061500945;0.182871771;-0.181456723;-0.153006943;-0.096708565;walk;16
33.9;-0.541322471;0.260332419;0.752930842;-0.119609049;-0.071909875;-0.05127247;-0.977945142;0.080180948;0.194752388;0.003208942;-0.728394925;0.138527349;-0.945514279;-0.277839226;0.151341264;0.191910095;0.206635685;-0.776824294;-0.997731881;0.030295642;0.186239604;0.013397956;0.083830233;-0.067590141;walk;16
34;-0.532482419;0.288381963;0.741585803;0.04582654;0.077744722;0.018638698;-0.98088349;0.092393477;0.164236623;-0.29003717;-0.566345441;0.081804613;-0.959330285;-0.266999944;0.156830281;-0.448766585;0.09501027;-0.808182189;-0.945027906;0.02686909;0.226323285;0.046924837;0.018452029;0.015814405;walk;17
34.1;-0.54283916;0.30011509;0.728910963;-0.059687841;-0.017605336;-0.08899251;-0.96428155;0.093319972;0.179400285;-0.034404817;-0.577015589;-0.003328956;-0.914466768;-0.319196278;0.191550732;-0.263669262;0.127893908;-0.499314607;-0.939637445;0.035827116;0.261322836;0.195427643;0.042852542;-0.065692158;walk;17
34.2;-0.536436865;0.263006218;0.749401634;-0.095033671;0.038892783;-0.121496143;-0.972858261;0.076399026;0.304672936;-0.158953273;-0.559466058;-0.021446589;-0.929301161;-0.35354597;0.039504705;-0.200204815;0.169130866;-0.533314769;-0.941036138;0.033398938;0.296283568;0.283080845;0.006994323;-0.127543182;walk;17
34.3;-0.547541832;0.254197661;0.750821111;0.12698603;0.397426511;-0.139008855;-1.010413494;0.08546338;0.217008439;-0.453330843;-0.660315715;-0.077653947;-0.967461564;-0.2871477;0.130060989;-0.455085836;0.048017336;-0.394699397;-0.938405866;0.008225385;0.36910082;0.570058061;0.012820154;-0.327087119;walk;17
34.4;-0.604658034;0.286831257;0.719735564;0.069303377;0.967036347;-0.287962374;-1.031608123;0.062401526;0.322531556;-0.11491695;-0.927971424;-0.283812715;-0.941948909;-0.343748909;0.126385656;-1.240627579;-0.027450893;-0.080457411;-0.987826661;0.0560592;0.369698992;0.466281556;-0.021848032;-0.382591981;walk;17
34.5;-0.694303905;0.29180707;0.662850972;-0.328154157;2.094151812;-0.541310912;-1.053596341;0.039894869;0.343748293;0.443046368;-1.022016279;-0.524267419;-1.025551941;-0.35813529;0.185869867;-0.193497337;0.320081468;0.035968353;-1.112411682;0.054401317;0.368652374;0.179819569;-0.04805307;0.064426607;walk;17
34.6;-0.918541952;0.184350339;0.412608186;-1.051880475;3.106623614;-1.150959401;-0.847086246;-0.002283592;0.449685523;0.197831297;-1.134280333;-0.468374489;-0.893694472;-0.307837874;-0.055741577;-0.512680502;0.277610754;0.272235444;-0.896640298;-0.027191868;0.278299184;0.043972177;-0.018444144;0.253552961;walk-stand;17
34.7;-1.077857366;0.127820999;0.243357812;-0.164875613;2.635572187;-1.155291606;-0.845080059;-0.028714668;0.512349202;-0.129141247;-1.259991626;-0.211074578;-0.97147593;-0.352742649;0.003189672;-0.199825039;-0.069094352;0.666375054;-1.022184006;-0.10948955;0.152442209;-0.116834148;-0.178801189;0.144523176;walk-stand;17
34.8;-1.049443453;0.084748209;0.385905652;0.326581733;1.011272374;-1.037656324;-0.66727888;-0.084438239;0.665004694;0.077596133;-0.926125554;-0.05228109;-1.007328561;-0.302113355;-0.102660689;0.901485283;-0.331156713;1.235764156;-0.950986318;-0.114040648;0.179615838;-0.01577705;0.04478986;-0.073388041;walk-stand;17
34.9;-0.578882556;0.121684703;0.377811337;0.95607231;-2.612448959;0.345080763;-0.386623866;-0.122652524;0.765841404;-0.269663484;0.796397567;0.276534598;-1.027397301;-0.361083751;-0.192319108;0.304131838;-0.448200304;1.24937832;-0.997536934;-0.063241389;0.224129897;-0.086959842;-0.000573;-0.137164558;walk-stand;17
35;-0.766742964;-0.121193624;0.473645027;1.262238264;-3.242697806;1.611987723;-0.535307149;-0.14835238;0.724661988;-0.311455245;2.544149035;0.214648938;-0.90166932;-0.36729953;-0.06491257;-0.100319521;-0.164416851;0.779762345;-0.947503466;-0.084777638;0.266676043;0.017261852;0.022879392;-0.13869999;walk-stand;17
35.1;-1.267739822;-0.097167617;0.412841179;0.584054067;-2.869331815;1.493389417;-0.880440846;-0.121546795;0.647559866;0.012412159;2.577680491;-0.086598861;-0.895212733;-0.201099882;0.009518955;0.432627954;0.159344815;0.122564442;-0.97079535;-0.094822097;0.272918404;-0.040223565;-0.010999581;-0.093973797;walk-stand;17
35.2;-1.215668948;-0.03325022;0.264390377;-0.269006922;-0.479870059;1.148330836;-0.9781036;-0.075398682;0.484791263;0.369806335;1.009937782;-0.151936059;-0.963610201;-0.081729631;0.028297864;0.446411142;0.258185452;-0.395222079;-0.946228641;-0.098972172;0.302867306;-0.17867129;-0.017878957;0.01948046;walk-stand;17
35.3;-0.698064691;0.108099692;0.709040437;-0.472754155;-0.153649646;0.612366334;-0.950516361;-0.078587727;0.342848322;0.3822926;0.278371507;-0.030341065;-0.973530854;-0.217755316;-0.001188135;0.510913217;0.131692494;-0.714885461;-0.954840319;-0.119667145;0.328051175;-0.148229038;0.003348748;-0.000286046;walk-stand;17
35.4;-0.627562985;0.277087565;0.742120182;0.151161679;-0.316768023;0.180788756;-1.031289372;-0.070258287;0.150122396;-0.336127053;0.367759994;0.20935524;-1.060041009;-0.103533516;-0.061529813;0.045145252;0.043181465;-0.787201587;-0.974300965;-0.108759471;0.307351287;-0.092289317;-0.036497529;-0.036742466;walk-stand;17
35.5;-0.537830475;0.276682238;0.743460184;0.096620325;0.00146664;0.12794759;-1.004168799;-0.043308472;0.064508735;-0.490316208;0.159286578;0.202817528;-0.968699504;-0.16071767;0.096762306;-0.062090009;0.062146942;-0.479388863;-0.936607982;-0.077488363;0.315750886;-0.00416222;0.041939274;-0.029814195;stand;17
35.6;-0.533220055;0.272745511;0.744602723;0.027172493;-0.0027651;0.069166161;-1.00127303;-0.02771982;0.08888685;-0.3644531;0.062878051;0.162297128;-0.963160273;-0.249028289;0.05329807;0.277025623;0.199846302;-0.309205728;-0.9593999;-0.038845411;0.312520498;-0.062686918;-0.008153029;0.086724961;stand;17
35.7;-0.534430538;0.288595588;0.73919683;0.043353917;0.022134164;0.095662812;-1.00305343;-0.019677879;0.06472634;-0.316491887;-0.042902459;0.122606718;-0.976340567;-0.269112507;0.066080378;0.118266417;0.106865065;-0.132398683;-0.969608352;-0.040350995;0.296238232;-0.116029555;0.056758083;0.154567123;stand;17
35.8;-0.534117261;0.29679854;0.736354141;0.016158634;0.001201605;0.067879639;-0.994420102;-0.015654448;0.114142602;0.062881755;-0.064899955;0.070962825;-0.951407046;-0.289814881;0.055093977;0.078356575;0.026312289;-0.061519887;-0.958512218;-0.022760838;0.30015074;-0.167782616;0.108979629;0.132354286;stand;17
35.9;-0.53206244;0.295182953;0.736949822;-0.013633205;-0.002224568;0.054496108;-0.991948369;-0.009561807;0.126827325;-0.043359113;-0.040024787;0.051111528;-0.942666061;-0.320040281;0.050024232;0.28165694;0.072830146;-0.062623964;-0.965434228;-0.016877586;0.305787717;-0.159359489;0.061889384;0.146564995;stand;17
36;-0.53076124;0.296084927;0.736903351;-0.027256981;-0.010477128;0.028868126;-0.997129456;-0.005769862;0.115295952;0.053032473;-0.021395952;0.031989238;-0.951831086;-0.293123002;0.037238053;0.152141823;0.024912073;-0.043756293;-0.969649669;-0.026365518;0.287198339;-0.077074756;0.106838002;0.058789774;stand;18
36.1;-0.531596098;0.296989749;0.737306135;-0.032734177;-0.012584528;0.016744101;-0.991032593;-0.004294303;0.133373276;0.036932181;-0.031538892;0.015444439;-0.941181958;-0.320020655;0.065399579;0.10587377;0.027674155;-0.003788078;-0.969271082;-0.025988078;0.284927825;-0.051371033;0.101126418;0.032082273;stand;18
36.2;-0.531168194;0.293792663;0.737217992;-0.026358058;-0.006946462;0.01804648;-0.990307345;0.0008593;0.131523473;0.003160891;0.004067512;0.009858636;-0.944442451;-0.310207239;0.046776243;0.047808482;0.045322641;-0.006205543;-0.967871854;-0.027843882;0.26933462;-0.029737666;0.036649122;0.02119636;stand;18
36.3;-0.529691657;0.294065619;0.73808531;-0.023313517;-0.006067123;0.01830215;-0.995440509;-0.008580522;0.124349278;-0.079368301;-0.021076452;0.010284363;-0.942479831;-0.31147167;0.05267403;-0.021902435;0.042283848;0.012331591;-0.970870104;-0.026596575;0.270248331;0.00741641;0.072961885;0.009697823;stand;18
36.4;-0.530624312;0.292927018;0.738887509;-0.025381175;-0.008285356;0.013595715;-0.990472368;-0.009703602;0.129422996;-0.022667824;0.007464721;0.004976502;-0.941933199;-0.310990059;0.045463071;0.000192729;0.039216837;0.011670802;-0.971872659;-0.027366012;0.271247229;0.019183634;0.088163411;0.010233614;stand;18
36.5;-0.53006942;0.291479884;0.738660462;-0.018564272;-0.009817403;0.011902484;-0.990585435;-0.006234132;0.125261583;0.003482736;0.017623312;0.000631699;-0.94506239;-0.305438804;0.050263971;0.016153034;0.029930857;0.019745887;-0.972446676;-0.032271391;0.264175497;0.03470102;0.066287151;0.008887338;stand;18
36.6;-0.530105012;0.293143978;0.738325776;-0.025680798;-0.00907309;0.011900435;-0.99467823;-0.006878522;0.120648829;0.022188559;0.010989007;-0.003868067;-0.943510749;-0.306969177;0.054104352;0.025838204;0.030854958;0.018711453;-0.976220531;-0.024493446;0.261818722;0.046649349;0.025730679;0.058199808;stand;18
36.7;-0.528844928;0.291513065;0.739322394;-0.034931023;-0.007168539;0.020563563;-0.99218475;-0.010779498;0.115773336;0.04067505;0.008208979;-0.007488044;-0.946292012;-0.30018594;0.05192089;0.069632766;0.050598999;0.020714656;-0.97814345;-0.013794989;0.261579172;-0.062475141;0.004796082;0.066366641;stand;18
36.8;-0.527465701;0.291296858;0.740887176;-0.028855915;-0.001561554;0.037676175;-0.994934102;-0.010597302;0.111503956;0.079384834;-0.015637906;-0.012773444;-0.947802548;-0.300808876;0.055027754;0.069363955;0.064233314;0.036490981;-0.974311865;-0.011186144;0.253180123;-0.139838173;-0.028376073;0.047368891;stand;18
36.9;-0.528914404;0.289144554;0.741805669;0.006214764;0.026299955;0.06898212;-0.993432115;-0.004377618;0.129497768;0.087334541;-0.038670865;-0.019651972;-0.95136962;-0.294887252;0.038460422;0.016801591;0.053956573;0.067752607;-0.975694824;-0.018643176;0.250887013;-0.142153278;-0.051642545;0.035318615;stand;18
37;-0.534065882;0.297685958;0.73649684;0.033381186;0.035877292;0.069923715;-1.000049216;0.000574323;0.084338075;0.222251302;-0.064385367;-0.041015211;-0.970420335;-0.267836792;0.076394617;-0.147966345;-0.031003082;0.200266925;-0.97339056;-0.02117038;0.240199489;-0.007955812;-0.022039296;7.67553E-06;stand;18
37.1;-0.526696086;0.300148119;0.742465094;0.03990418;0.066259665;0.040251897;-1.051387656;0.030821328;-0.056593822;0.833287985;-0.3742923;-0.11964109;-1.032284342;-0.107307195;0.143801511;-0.219521153;-0.247564056;0.66988484;-0.95300678;-0.030669087;0.231107856;0.192933024;0.026303692;-0.074395344;idle;18
37.2;-0.550472159;0.335846414;0.799258717;0.235786077;0.755090405;-0.372198556;-1.143284851;-0.086385048;0.18989831;0.067185695;-0.909969663;0.003700121;-1.152597178;0.040535631;-0.065833921;-0.801480749;-0.603272198;1.842814966;-0.956125119;-0.133437118;0.270705886;0.589590144;0.342411995;-0.288879263;idle;18
37.3;-0.570357047;0.184461734;0.917891887;1.181767604;1.355155369;-0.506324524;-0.845268941;-0.300030139;0.397140887;-1.492899254;-0.573531301;0.426925407;-1.065875418;0.007833762;-0.211082607;-1.031358397;-0.270276729;1.752069348;-0.982249665;-0.053249425;0.304051561;0.55737446;0.202816816;-0.202315294;idle;18
37.4;-0.225213329;-0.191642998;1.108285346;0.579992187;-2.030735753;-1.445342653;-0.682435784;-0.284173832;0.291428166;-1.541086482;1.244329088;0.035436609;-0.854097681;-0.211623426;-0.020229537;-1.338257497;0.481011766;0.658533726;-0.951323974;-0.091562507;0.370027131;0.563859278;0.077318178;-0.073234207;idle;18
37.5;-0.711304961;0.118523628;0.786841731;0.986387941;-2.841348395;-2.519535353;-0.945789537;-0.019788901;0.150938108;-2.088726849;2.237290208;-0.136581448;-0.907105145;0.124377336;0.023663276;-0.370506756;1.140498546;0.183436663;-0.899128805;-0.165791858;0.344301817;0.624583855;0.145407818;-0.020705141;idle;18
37.6;-1.183189465;0.085544726;0.227613839;1.203362339;-1.274131113;-1.496079004;-1.07824152;0.138685005;-0.06072031;-2.315855897;0.777895155;0.168115575;-1.027234594;0.353212988;0.037539572;-1.931295386;0.082942587;-4.98E-01;-0.949616217;-0.203642772;0.331875904;0.801841205;0.140327536;-0.12634172;idle;18
37.7;-0.702477012;0.483916596;0.730846694;0.711194592;1.080087188;-1.055246309;-1.110147006;0.015423889;-0.297518869;-0.771912369;-0.8944912;0.402670612;-1.07788854;0.262428614;0.334038614;-2.724283528;-0.82970261;-0.15067383;-1.022317723;-0.160091922;0.233546242;0.749933075;0.026863786;-0.310916969;idle;18
37.8;-0.603103739;0.3374195;0.742031972;0.085586174;0.063882022;0.166382284;-0.951653235;0.051905965;0.244216004;0.05336558;-0.916670533;0.380959601;-0.917812043;-0.247845623;0.017262818;0.79290874;0.028808289;-0.59580532;-1.130046714;-0.119649571;0.148834021;1.020685837;-0.029258683;-0.370849294;idle;18
37.9;-0.522099107;0.306978018;0.744052265;0.076545344;-0.014030266;0.011506796;-0.990683001;0.131180385;0.094003348;-0.579701006;-0.563327505;0.344990944;-0.957621139;-0.153100221;0.221366221;-0.998285155;-0.343381145;-1.006442321;-0.933914691;0.042691702;0.119918256;0.698072476;0.092055925;-0.214739251;idle;18
38;-0.518609202;0.275950762;0.754937959;-0.146055433;-0.124219827;-0.155572707;-0.989033803;0.110263918;0.142155464;-0.303131331;-0.503134085;0.172350754;-0.959687653;-0.157769946;0.236840075;0.121693687;0.019089717;-0.55028781;-0.995922978;0.020688255;0.179301336;0.839215405;0.095250058;-0.005424713;idle;19
38.1;-0.508971417;0.275114569;0.758059148;0.125404451;0.02280625;0.010814946;-0.983888018;0.098535817;0.12335076;-0.455502609;-0.554602573;0.138594818;-0.976758219;-0.095253256;0.153285642;-0.748224709;-0.02017044;-0.726357196;-0.923394766;-0.038174283;0.224366917;0.810977863;0.014887598;-0.016203886;idle;19
38.2;-0.524901624;0.300867937;0.745416132;0.123389683;0.065634434;-0.039272446;-0.979779175;0.109257397;0.135122134;-0.426784464;-0.80523555;0.139925757;-0.932988979;-0.159372083;0.193333624;-1.195571209;0.027031188;-0.763242888;-0.93074421;-0.006960435;0.269882811;0.706555751;0.070900443;-0.180914064;idle;19
