Header,foot_Accel_X,foot_Accel_Y,foot_Accel_Z,foot_Gyro_X,foot_Gyro_Y,foot_Gyro_Z,shank_Accel_X,shank_Accel_Y,shank_Accel_Z,shank_Gyro_X,shank_Gyro_Y,shank_Gyro_Z,thigh_Accel_X,thigh_Accel_Y,thigh_Accel_Z,thigh_Gyro_X,thigh_Gyro_Y,thigh_Gyro_Z,trunk_Accel_X,trunk_Accel_Y,trunk_Accel_Z,trunk_Gyro_X,trunk_Gyro_Y,trunk_Gyro_Z,Label
0.0,-0.258921314033527,-0.0300660164331276,0.965796179019627,0.0717750003926706,0.0021107661912977,0.0442286438974336,-0.995693432644695,-0.0536448646418817,0.0754310195523772,0.0503748619664364,0.0045096545053376,-0.0027016244396316,-0.995000536759202,-0.0537334724275547,-0.0846695079158447,0.0501580191857645,-0.0341815806238423,0.0053863191609493,-0.967918123036312,-0.0470187632368294,0.245337858417811,-0.0272093221797212,0.0103709231194555,0.009979814802413,idle
0.005,-0.258802316879127,-0.0305901880365562,0.966211006320939,0.0715340013219594,0.0023592806225206,0.0440419281621796,-0.995616670990567,-0.0536117505784368,0.0753989665928338,0.0502039762539969,0.0045710705514422,-0.0027270934238021,-0.994971650923915,-0.0535070476535398,-0.0842531092042188,0.0499951746514697,-0.0340677399496725,0.0053253464587723,-0.967264260681566,-0.048378943139274,0.24627774839608,-0.0275243953619446,0.0102179438824291,0.0099249582229874,stand
0.01,-0.258587780095745,-0.0311081090406911,0.967072233066582,0.0712742973342163,0.0030915972770364,0.0436636753727049,-0.995507498652377,-0.0537170639219946,0.0752411314530794,0.0500558064597765,0.0047894034027912,-0.0028452271045759,-0.994927886086656,-0.0529992251183048,-0.0835307480759743,0.0498687693766404,-0.0338987006589457,0.0051754365605607,-0.966046423012552,-0.0508072400260615,0.248099590181276,-0.0285754692941855,0.0097903189401354,0.0098178807877948,stand
0.015,-0.258185480988943,-0.0314979293293086,0.968007259726793,0.0713151347226694,0.0042212042654836,0.0431665775474184,-0.995658298548579,-0.0540908488701522,0.0748114336268869,0.0502493149673872,0.0051706941177604,-0.0030812457088047,-0.995142837190248,-0.0525752832144309,-0.0828642797774437,0.0500984126499702,-0.0337410456524501,0.0049635867934294,-0.965184238442468,-0.0521079078333844,0.24927344743656,-0.0302339812593889,0.0091220631275879,0.0097070592238998,stand
0.02,-0.257483484449638,-0.0317424551251229,0.969073663684692,0.0715128454901691,0.0055854004726255,0.0423514374447062,-0.996173037212329,-0.0547042654807204,0.0740628111019759,0.0507863832832253,0.005674439096384,-0.0034129091615703,-0.995750540580725,-0.0523179477541699,-0.0823108807853162,0.0506823859545089,-0.0334464013392745,0.0047118286262588,-0.96483906453163,-0.051930369669284,0.249383035591306,-0.0320762154428028,0.008222604980735,0.0095829239247922,stand
0.025,-0.256689145423221,-0.0315565538582768,0.970324771819732,0.0719983879902856,0.0070670573229338,0.0411487949910267,-0.996907399770065,-0.0556067079083875,0.0730523548506434,0.0518830919402069,0.00629684705047,-0.0038368257655407,-0.996608928569695,-0.0519758908498708,-0.0815732936630425,0.0518334557362355,-0.0329706168495629,0.0044576581974768,-0.964916595552345,-0.050760774764866,0.24890169167791,-0.0338003120999959,0.0071241064163868,0.0094698024751012,stand
0.03,-0.256013015508803,-0.0307140702487561,0.971786526741456,0.0731775593353739,0.0086042477415224,0.0396392252625852,-0.997727782989489,-0.0567993722738003,0.0718532446316863,0.0539580836532829,0.0070688359467979,-0.0043650339591479,-0.997586071277334,-0.0513492104533382,-0.080425878311463,0.0539668631021418,-0.0323797518674494,0.0042553145709822,-0.965321425470853,-0.0490451706199759,0.248232895062771,-0.035245958870074,0.0058858472871655,0.0094279870431679,stand
0.035,-0.255596866595481,-0.0291595482660451,0.973437259928065,0.075596329922541,0.0101749840105,0.0380055618087866,-0.998553231838203,-0.0582250934665827,0.0705330577950142,0.057517607110607,0.0080348492650646,-0.0050136202872305,-0.998596937936362,-0.0503726969745418,-0.0788186012637526,0.0575850366901735,-0.0318021923062991,0.004168558015967,-0.965950834940771,-0.0470711840071286,0.247619008504852,-0.0363508619027083,0.0045806162423703,0.0095400087514714,stand
0.04,-0.255490617061959,-0.0270365197634472,0.975197387514683,0.0797639756042354,0.0117764252597636,0.0364641246170126,-0.999349380592383,-0.0597734329697537,0.0691556695879621,0.0630052052232323,0.0092279363046305,-0.0057914275828011,-0.999593753904875,-0.0491216209335184,-0.0768840372057093,0.0631273996042552,-0.0313700426868741,0.0042579005897389,-0.966677953984192,-0.0450017777646962,0.247178444225616,-0.0371043603487968,0.003272631317743,0.0098906729210134,stand
0.045,-0.255655076495587,-0.0246540021403765,0.976932085258161,0.0860015380152788,0.0134059097112749,0.0352033268214332,-1.00010761966062,-0.0612972182354519,0.0677901048453382,0.0706722137047829,0.0106516219640453,-0.0066926731279723,-1.00054553812864,-0.0477767264885695,-0.0748884157129715,0.0708413286810178,-0.0311750655864681,0.004567441448738,-0.967359940017262,-0.0429356885494892,0.24695934692348,-0.0375179909391956,0.002000101026026,0.0105485088955001,stand
0.05,-0.255975225334507,-0.02243121003426,0.978463376868316,0.094340568786428,0.0150449567152391,0.0343395634531638,-1.000828074324,-0.0626321439341365,0.0665163949801716,0.0804914570846477,0.0122713623682815,-0.0076937787117477,-1.00142351030071,-0.0465818729012305,-0.0731722771826895,0.0806964202253713,-0.0312458908128048,0.0051145242833349,-0.967859420339338,-0.0409434016341217,0.246975855456496,-0.0376105000725471,0.0007683301646941,0.0115523328448362,stand
0.055,-0.25628133695272,-0.0208385355158904,0.979589876626786,0.104469431187136,0.0166466659435713,0.0338894894849865,-1.00151027589176,-0.0636157156237895,0.0654257967387126,0.0921128068814572,0.0140137223553473,-0.0087532986209336,-1.00219537943809,-0.0458050316985772,-0.0720958773521105,0.0923405690699727,-0.0315423989287451,0.0058830789472763,-0.968062753308603,-0.0390802272322379,0.247226824609045,-0.0373998021635694,-0.0004483831066418,0.0129033168255541,stand
0.06,-0.256385225137404,-0.0203233816798207,0.980117620286966,0.115725577060309,0.018128862022842,0.0337574838046158,-1.00214813763111,-0.0641079185074561,0.0646148232002925,0.104860475188154,0.0157714814935676,-0.0098143380757817,-1.00282629151857,-0.0456927811693323,-0.0719764539704857,0.105097640204423,-0.0319619121767499,0.0068212101652225,-0.967891844550418,-0.0373930122425204,0.247701651196003,-0.0368984188909131,-0.0017000949689028,0.0145619151098932,stand
0.065,-0.256139378489011,-0.0212027587914911,0.97990695999459,0.127150698691599,0.0193771869382847,0.0337448716580371,-1.00272646156062,-0.0640169549690881,0.0641710381356894,0.117787430091894,0.0174148570312468,-0.0108098199667955,-1.0032846522293,-0.0464059293516671,-0.0730030823024077,0.118021986416023,-0.0323554214519802,0.0078450596225903,-0.96731320212611,-0.0359254034436893,0.248376985221518,-0.0361127372966207,-0.0030523321931834,0.0164501056001365,stand
0.07,-0.255511423787652,-0.0235317437710358,0.978930495069782,0.137637062005557,0.0202624133337065,0.0335941480209411,-1.0032189961434,-0.0633272534409209,0.064151108577872,0.129810810873574,0.0188098850842299,-0.0116711393934722,-1.003551226013,-0.0479422860608994,-0.0751393395268667,0.130033489014594,-0.0325549686793287,0.0088520380691054,-0.966344845694294,-0.034716250547125,0.249210110582517,-0.0350460683713071,-0.0045758758049541,0.0184608655085814,stand
0.075,-0.254638348350601,-0.0270092085427293,0.977315027390187,0.146169753780626,0.0206724604516836,0.0330725759062016,-1.00358911486309,-0.0621157721908449,0.0645608267044861,0.139931348818995,0.0198432195048945,-0.0123396278854016,-1.00362702260445,-0.0500842746117563,-0.0780622580050818,0.140136022839079,-0.0324115141756707,0.0097442428038181,-0.965056065782054,-0.0337919628554477,0.250136478416282,-0.0337034730272448,-0.0063360841183326,0.0204755861489829,stand
0.08,-0.253810438115428,-0.0310139753719601,0.975327141972173,0.152101538052714,0.0205505705387559,0.0320710699635513,-1.00379444643305,-0.060536875235298,0.0653526802579328,0.147481093030181,0.0204476918243974,-0.0127778704442754,-1.00353349057707,-0.0524267839444486,-0.0812070390637602,0.147663897784692,-0.0318347027062569,0.0104560007516994,-0.963554534067097,-0.033163256200631,0.251076089133697,-0.0320960360220891,-0.0083836610456779,0.0223850437085357,stand
0.085,-0.253366544982658,-0.0348108383534642,0.973286018653487,0.155330272890494,0.0199215457576081,0.030667918629472,-1.00379645324495,-0.0587702436245634,0.0664473759452855,0.152284731459496,0.0206175977104184,-0.0129758249151648,-1.00330266207731,-0.0545069816673629,-0.0839442290988773,0.152442201307323,-0.0308173042448988,0.0109724944082122,-0.961962617334547,-0.0328321291526587,0.251946669134392,-0.0302432532988131,-0.010749192523694,0.0241045602870925,stand
0.09,-0.253548235673389,-0.0378385539785976,0.971441368841262,0.156266264507438,0.01888881118091,0.0291145937121448,-1.0035730038595,-0.0569557555268385,0.0677669625214641,0.154633949633462,0.0204037166581998,-0.0129478551865028,-1.00296294400708,-0.0559811561331717,-0.0858164461209765,0.154761088444215,-0.0294292844034378,0.011327844888315,-0.960393795849333,-0.0328022056047247,0.252676265944537,-0.0281727921582874,-0.0134422835315394,0.0255755734261653,stand
0.095,-0.254396885272612,-0.0399143090559449,0.969886206755242,0.155594717350512,0.0176004401523823,0.027744810469072,-1.00312831252985,-0.0551539578009514,0.0692582809764391,0.155079095839283,0.0198884318769288,-0.0127217447245952,-1.002529963282,-0.0567482875328943,-0.0867008646072076,0.155168353352854,-0.02778276027099,0.0115827377720088,-0.958939610964076,-0.0330823219986052,0.253209588574564,-0.0259176975701253,-0.0164536620607729,0.026754602977981,stand
0.1,-0.255745635378894,-0.0412497105331871,0.968548606576176,0.153958406038766,0.0162001163841723,0.0268513533919636,-1.00249509003582,-0.0533521978257057,0.0708949890125082,0.154150664704519,0.0191528610792065,-0.0123253951812729,-1.00200753723817,-0.0569579520876364,-0.0868136685289175,0.154192268996074,-0.0259858913434114,0.0117938642634784,-0.957665686698862,-0.0336809117147335,0.25351008357,-0.0235126523890408,-0.0197579361560756,0.027598831250234,stand
0.105,-0.257295586006728,-0.042300688407622,0.967254426825247,0.151708910454048,0.0147847354339367,0.0265850597743564,-1.00172817230456,-0.051505298785448,0.072662006491717,0.152143508909188,0.0182506238594959,-0.0117772269038119,-1.0013967214381,-0.0569171639453541,-0.0865769617319473,0.152126915823495,-0.0241064390071262,0.0119899656311751,-0.956604582752702,-0.0345952163418484,0.253565468403246,-0.0209914850915904,-0.0233170086026879,0.0280580923518955,stand
0.11,-0.258731409948725,-0.0435440072702544,0.965823923290095,0.148813877789035,0.0133838100170302,0.0269116962793329,-1.00089255280082,-0.0495858221136664,0.0745331943970293,0.149039941318169,0.0171971454776994,-0.0110832072664108,-1.00070739365467,-0.0569523896544907,-0.0864260939011138,0.148955713977925,-0.0221562430892043,0.0121632005174918,-0.955736109270599,-0.0357991153571634,0.253401806045546,-0.0183866251224462,-0.0270872988457336,0.0280774498765437,stand
0.115,-0.259832291851392,-0.0452688572453822,0.964164795615341,0.14493587851112,0.0119661148212406,0.0276381695166244,-1.00004965314347,-0.0476238239370907,0.0764519468504396,0.144582023260529,0.0159762620422698,-0.0102403618290749,-0.999967029074609,-0.0572797433045591,-0.0866316854808646,0.144423339409696,-0.0200976267884519,0.01227726820688,-0.954962871593684,-0.0372322638418531,0.253100329745997,-0.0157290687473538,-0.0310343257498747,0.0276087909447387,stand
0.12,-0.26054095212912,-0.0474541152065511,0.962328336793135,0.139644870024317,0.0104702091706193,0.0284977074820563,-0.999245424748675,-0.0457225115411399,0.0783234355937949,0.138456628887928,0.0145605578891712,-0.0092448418328889,-0.999221841075377,-0.0579254420587146,-0.0871957643018286,0.138219781156089,-0.0178668521759298,0.0122883033543612,-0.954109371761035,-0.0387967570255561,0.252798172269555,-0.0130470227892143,-0.0351533833038499,0.0266268079852877,stand
0.125,-0.260960555742232,-0.0497868783254366,0.960500324063941,0.13267685026542,0.008846380224322,0.0292604347497439,-0.998503405594977,-0.044040157810173,0.0800259822109418,0.130515846421492,0.0129371032105434,-0.0081013076048654,-0.998526412121601,-0.0587297958421987,-0.0878688611554984,0.13019954489461,-0.0154058019257111,0.0121696452874106,-0.95297575965416,-0.0403706179860305,0.252652133655778,-0.0103634344241723,-0.0394859688799854,0.0251431341702944,stand
0.13,-0.261276979630127,-0.0518251483080953,0.958923231833596,0.124117440674746,0.0070907994297029,0.0298190686839074,-0.997824316983207,-0.0427406655283049,0.0814401565116629,0.120927760310512,0.0111267822278153,-0.0068295867512904,-0.997922809221443,-0.0594371565760932,-0.0882909135338777,0.120531679094881,-0.0126899872470965,0.0119283022739738,-0.951444157058926,-0.0418397202433093,0.252766380842869,-0.0076948699085128,-0.0441156890106106,0.0232116058644909,stand
0.135,-0.261649397139776,-0.0532184675798865,0.957789070154821,0.114418023467243,0.0052557965662628,0.030209514514605,-0.997191083172612,-0.0419355055024673,0.0824809800857889,0.110179050555788,0.0091874781302363,-0.0054657054791591,-0.997418425005971,-0.0598225548810537,-0.0881832089708562,0.109702534223979,-0.0097423987140209,0.0116040395616202,-0.949584481967897,-0.0431334798003907,0.253119603937315,-0.005053684497346,-0.0491342586813086,0.0209198832094027,stand
0.14,-0.262133120405302,-0.0538566876829232,0.957163964595566,0.104249550628628,0.0034343214855318,0.0305644652611391,-0.996576198521393,-0.041648913195272,0.0831159885890901,0.0989369239646797,0.0072004618563041,-0.0040575816162683,-0.996975863422488,-0.0597810754194194,-0.0874786453907048,0.0983787011821529,-0.0066306242266684,0.0112521824031647,-0.947689522691074,-0.0442425188922927,0.253539877813072,-0.0024525556810725,-0.0545867369687569,0.0183692833875177,stand
0.145,-0.262669357487225,-0.053875382581197,0.956980278426682,0.0942905798500111,0.0017309492384373,0.0310345000192079,-0.995948778094687,-0.0418227557740184,0.0833642372335012,0.0878583945138658,0.0052492430121258,-0.0026584280371733,-0.996522304714965,-0.0593397830403389,-0.08632413940408,0.0872175534648544,-0.0034536979666851,0.0109207874354398,-0.946208146282438,-0.045208406405839,0.253749530160447,9.11363514304682e-05,-0.0604203633573409,0.0156518288886756,stand
0.15,-0.263128705964177,-0.0535497670563668,0.957085406442077,0.0850585366929908,0.0002351717241627,0.0317180627591297,-0.995280441337557,-0.0423511959073845,0.0832838036956734,0.0774445571878495,0.0034028762934439,-0.0013210080487956,-0.995974184300513,-0.0586095822800132,-0.0849798720050107,0.0767223620773798,-0.000327772700843,0.010634061507212,-0.945605000811554,-0.0460938877509284,0.253460823883059,0.0025524363443425,-0.0664612401552601,0.0128352241951806,stand
0.155,-0.263373364379784,-0.0531626603402979,0.957310588198728,0.0768385311499857,-0.0009934074195651,0.0326247050861739,-0.994550232279645,-0.0431213884233216,0.0829556705955224,0.0679859049931129,0.0017102417898969,-9.39819187704312e-05,-0.995264799067713,-0.0577219738838745,-0.0836945143120881,0.0671876881216655,0.0026246250245111,0.0103877652809156,-0.946212888457235,-0.0469503504677276,0.252475694428983,0.0048973920460129,-0.0724298163939133,0.0099613828333811,stand
0.16,-0.263309731999172,-0.0529143947689096,0.957526749722459,0.0697029540581037,-0.0019258326773197,0.0336762975539172,-0.993748579136103,-0.0440410843797037,0.0824659868666653,0.0595873359587947,0.0002037274337113,0.0009801144884531,-0.994362369971115,-0.0567842652803474,-0.0826258971043573,0.0587237735974992,0.0052822111316637,0.0101552135414651,-0.948147943671397,-0.04779646393416,0.250739899775298,0.0070832445192476,-0.0779879387961734,0.0070563870972258,stand
0.165,-0.262915450413382,-0.0528945502676902,0.957670493074805,0.0635826500089646,-0.0025538097963203,0.0347371783127045,-0.992880067914971,-0.0450478500229749,0.0818876136771669,0.0522330800504889,-0.0010940938207563,0.0018661136107368,-0.993273463243634,-0.0558624306653861,-0.0818292974302281,0.0513205032283081,0.0075313499074763,0.0098985725245613,-0.951322346027099,-0.0486140361562767,0.248328443815156,0.0090608292044768,-0.0827953183678869,0.0041446661492503,stand
0.17,-0.262235894764709,-0.0530958694919687,0.957740598784609,0.0583475441786238,-0.0028763932051738,0.0356554929805899,-0.991964975939637,-0.0461066699218609,0.0812655918392648,0.045854265288964,-0.0021663664817448,0.0025370432130158,-0.992036476065815,-0.0549833749558881,-0.0812878627898001,0.0449140405895091,0.0092718630094666,0.009580095507116,-0.95552325849718,-0.0493574401930609,0.245386821021748,0.0107789265148089,-0.0865520618285525,0.0012604966899732,stand
0.175,-0.261359400527377,-0.0534380539919367,0.95777896078208,0.0538719326049787,-0.0028915806400525,0.0362977674362601,-0.991038882855203,-0.0472055857480366,0.0806125900473157,0.0403822785528611,-0.0030012994459569,0.0029743556627661,-0.990713614146237,-0.054142467738791,-0.0809418946829855,0.0394395175051713,0.0104218841412522,0.0091705574394249,-0.960485835599827,-0.0499670159771962,0.242080603729927,0.0121892791067521,-0.0890199006074366,-0.001545871733095,stand
0.18,-0.260390503921879,-0.0537843247163919,0.957851918790095,0.050082146478197,-0.0025959442146662,0.0365692653986678,-0.99014835025316,-0.0483524712434466,0.0799165845734831,0.0357902241612635,-0.003591861997221,0.0031672272170439,-0.989383962845236,-0.053306965183294,-0.080694983831461,0.0348721008179861,0.0109211772173003,0.0086549379966669,-0.96592175873472,-0.0503806118185015,0.238580740841671,0.0132512655200472,-0.0900321225229935,-0.0042068101579786,stand
0.185,-0.259434397313836,-0.0539570315045134,0.958037462222095,0.0469937933890192,-0.0019882291115845,0.0364244869842884,-0.989341553784423,-0.0495689144940871,0.0791567186113314,0.0321277938622116,-0.0039328581583057,0.0031107869736352,-0.988133453654038,-0.052416315691497,-0.0804101997159069,0.0312617087201807,0.0107315686190175,0.0080360426532397,-0.971530008986839,-0.050545276690556,0.235064909280913,0.0139359714703362,-0.0895019720906289,-0.0066401783627605,stand
0.19,-0.25859072828885,-0.0537652535433034,0.958413743874473,0.0447384078012047,-0.0010709188730904,0.0358742600442568,-0.988657013304261,-0.0508780796586549,0.0783183188575163,0.0295449967929613,-0.0040157307256855,0.0028035349455475,-0.987039704457603,-0.0513871667223935,-0.0799224552445696,0.0287568425620412,0.0098329916415715,0.0073356123547103,-0.977028238997811,-0.0504311518076938,0.231705267599818,0.0142293924821187,-0.0874263242346162,-0.0087573661026295,stand
0.195,-0.257948613191486,-0.0530435633659894,0.959045856639921,0.0435701648687308,0.000151919788736,0.0349903190134263,-0.988116874973887,-0.0522904067209039,0.0773980958600726,0.0282938020112419,-0.0038244752420364,0.002244709018249,-0.986157733079903,-0.0501282216242807,-0.0790751798356642,0.0276066050007053,0.0082162564017065,0.0065919659065791,-0.982197007647914,-0.0500424323815983,0.228643216319315,0.0141341853481338,-0.083876570096861,-0.0104762399045253,stand
0.2,-0.257580360852095,-0.0516859512992626,0.959975396023185,0.0438464259122488,0.0016778272498698,0.0339044995283608,-0.987728795615609,-0.0537952811490271,0.0763975317242295,0.028703494609643,-0.0033360906875543,0.0014326336419676,-0.985515144432579,-0.0485616194408201,-0.0777635153678432,0.0281366006528495,0.0058772237805232,0.0058545217105564,-0.98689836290549,-0.0494177962754688,0.225974220296501,0.0136694659901628,-0.0789780278751457,-0.0117352826259367,stand
0.205,-0.25753666342003,-0.0496603801358777,0.961218324656033,0.0459879640002055,0.0035074952523487,0.0328007944578714,-0.987493825087494,-0.055363357377258,0.0753124672975026,0.0311388632630026,-0.0025260805785487,0.0003647559724932,-0.985118536619203,-0.0466424156740819,-0.0759586847407557,0.0307076211484058,0.0028170058008933,0.0051772831718485,-0.991055483345359,-0.0486196689756063,0.223753394810639,0.0128683326645205,-0.0728888963460473,-0.0125029837289848,stand
0.21,-0.257843796961748,-0.0470054333934261,0.962769168904745,0.0504316938572218,0.0056445411483981,0.0319005808097079,-0.987412996366032,-0.0569561993783866,0.0741314064307693,0.0359563036720937,-0.001376066749652,-0.000960742480434,-0.984963757831916,-0.0443704002354793,-0.0737035305261459,0.0356720353365158,-0.000952116645927,0.0046135026396128,-0.994624382969995,-0.0477202244856273,0.222007091743949,0.0117728725406858,-0.0657869304623718,-0.0127782531295945,stand
0.215,-0.25849947327101,-0.0438231283784905,0.964603615901755,0.0575839499688459,0.0080948011068786,0.0314416048372428,-0.987487270995284,-0.0585349002532283,0.0728482793922501,0.0434661476040508,0.0001207060926203,-0.0025425604289012,-0.985040957036503,-0.0417948128782626,-0.0710906943674266,0.0433362170926768,-0.0054008215337136,0.0042120289312836,-0.99759393953236,-0.0467927221232358,0.220731400800693,0.0104268420520308,-0.0578604129979204,-0.012582489997116,stand
0.22,-0.259464822564468,-0.0402796457028776,0.966674061586219,0.0677731052350668,0.0108655601714329,0.0316513365650098,-0.987712783155061,-0.0600616469027943,0.0714812972537886,0.0538982921299152,0.0019582774146856,-0.0043739076986935,-0.98533271333654,-0.0390165803072116,-0.0682453497421566,0.0539262406584972,-0.0104826633249022,0.0040141317175419,-1.00001101064302,-0.0459091695387381,0.219878956801039,0.0088672501305121,-0.0492943877827136,-0.0119481132565625,stand
0.225,-0.260653527815567,-0.0366150257124692,0.968899128923063,0.0811960878837059,0.0139628850091048,0.0327164416741815,-0.988078822304793,-0.0614944417662189,0.0700815326208064,0.0673629665413739,0.0041196134378775,-0.0064402593227734,-0.985811296742198,-0.0361924627166026,-0.0653294421180155,0.0675487926430017,-0.0161390793571186,0.0040494715923784,-1.00199450661391,-0.0451380860637507,0.219352633871348,0.0071171620782022,-0.0402501017604707,-0.0109086684781411,stand
0.23,-0.261921632916604,-0.0331550305148259,0.971152014006298,0.0978550243424563,0.0173835387662413,0.0347506950763909,-0.988572966174334,-0.0627792392699134,0.0687235126547513,0.0838008159264253,0.0065763240766294,-0.0087166979745941,-0.986440557348029,-0.033541257708064,-0.0625668097120561,0.0841414619975005,-0.0223022981161652,0.0043308948283209,-1.00371254363464,-0.0445375831287295,0.219019652857423,0.005182225448044,-0.0308455992851316,-0.009492896946495,stand
0.235,-0.263064071644699,-0.0303143976089473,0.973253935462362,0.117484972292606,0.0210996881180813,0.0377626948062084,-0.989188672874247,-0.0638441281468798,0.0674878834507476,0.102922867188313,0.0092829724853035,-0.011164509037321,-0.987180985190169,-0.0313451340953115,-0.0602662683425521,0.103412907833281,-0.0288895405548687,0.004848545014753,-1.00532791057873,-0.0441467952152989,0.218744699132643,0.0030523732738743,-0.0211474953492033,-0.0077230318615794,stand
0.24,-0.263827294743017,-0.0285761294622727,0.974980597166765,0.13948270689774,0.0250403064564764,0.0416251959741839,-0.98992617494009,-0.0645998055470437,0.0664524377750625,0.124150497726654,0.0121676266482593,-0.0137277982328943,-0.987992715879255,-0.0299329521923077,-0.0588091788050516,0.124783013756729,-0.0357892313722569,0.0055641913820278,-1.00693429917813,-0.0439826092947964,0.218431886991963,0.0007085743949237,-0.0111790364585459,-0.0056177997342373,stand
0.245,-0.263947989614403,-0.0284275513711861,0.976090471568621,0.162861970382998,0.0290783555269202,0.0460534600301178,-0.990783627948077,-0.0649508681740576,0.0656940808818846,0.146578837123667,0.0151250282856297,-0.0163320962449201,-0.988835321040692,-0.0296319797463061,-0.0585805537470969,0.147346472764024,-0.0428472845343868,0.0064075426505079,-1.00850783206,-0.0440436997508506,0.218060932191629,-0.0018668769210833,-0.0009435394750224,-0.0032007410847778,stand
0.25,-0.263221406898265,-0.0302404526667341,0.976379867699879,0.186278096240401,0.0330326476094202,0.0506095866883692,-0.991744982298489,-0.0648206734487355,0.065287343808147,0.169000466122833,0.0180191653391998,-0.0188872593473926,-0.989669212717491,-0.0306831590204317,-0.0598499927950175,0.169896579503677,-0.0498636272436426,0.0072779622354266,-1.00989536359153,-0.0443167999507238,0.217700424856901,-0.0046791273199376,0.0095430061661554,-0.0005117268706184,stand
0.255,-0.261585556316649,-0.0341140914080815,0.975755698878749,0.208168751781689,0.0366884690871662,0.0547544518342891,-0.992773244116977,-0.0641847123865548,0.0652869468450051,0.19002801597326,0.0206985860986941,-0.0212961046276764,-0.99046278447747,-0.0331369059970657,-0.0626382398647009,0.191047607684761,-0.0566060149368603,0.0080559327039719,-1.0108483258199,-0.0447799236933409,0.217488872614793,-0.0077118170803637,0.0202203842808148,0.0023842656752211,stand
0.26,-0.259181490329901,-0.0397556841422881,0.97429289557557,0.227021898040188,0.0398346304513877,0.0579546953454966,-0.993812638800268,-0.0630949186985988,0.0657022537028038,0.208323986328748,0.0230226690621827,-0.0234680201851925,-0.991201966761258,-0.0367797476533587,-0.066635152113142,0.209463912641535,-0.0628413865066991,0.00862587762213,-1.01108779238766,-0.0454032396712206,0.217592407484208,-0.0109230898074599,0.0309637716756977,0.0053969034222605,stand
0.265,-0.256338392099138,-0.0465033410427255,0.972230732929659,0.241697906043101,0.042306488653059,0.0598155876461256,-0.99479853633513,-0.0616728118636609,0.0664864915667772,0.222875521840501,0.0248907144602224,-0.0253334012507272,-0.991893764867568,-0.0411576998924644,-0.0712436535760829,0.224133651079888,-0.0683748738626529,0.0089043488688706,-1.01037169793265,-0.0461521130019976,0.218160026521766,-0.0142473661674116,0.0415796522833916,0.0084190942043129,stand
0.27,-0.253469557600683,-0.0535268346139466,0.969892496723066,0.251656371451753,0.044017068214697,0.0601774996283501,-0.995671873360583,-0.0600675329910478,0.0675539439087719,0.233187116040896,0.0262607064971319,-0.0268523405050528,-0.992559362122734,-0.0457148628872859,-0.0757635198434359,0.234560608250669,-0.0730782077410401,0.0088603287729025,-1.0085431459988,-0.046993712424771,0.219291714091046,-0.0176018491776336,0.0518173440213535,0.0113391431413385,stand
0.275,-0.250938089158428,-0.0600949761498775,0.967575513685116,0.256968987555243,0.0449618299637175,0.0591254590718827,-0.996392096476827,-0.0584060398784637,0.0688125812957325,0.239290359167774,0.0271480619970509,-0.0280132995085368,-0.993221545538006,-0.0499712457230399,-0.0796148405579347,0.240773755623203,-0.0768936572732274,0.0085167318649738,-1.00555393268169,-0.0479018822041826,0.221023796547282,-0.0208958606582218,0.0613925649452232,0.0140509710056398,stand
0.28,-0.248980919555878,-0.0657320358848809,0.965486486759282,0.258146478508043,0.0452001743426615,0.0569206533240701,-0.996942110119503,-0.0567715162733766,0.0701857589235461,0.241595579039918,0.0276078033631669,-0.0288241910201735,-0.99389584985203,-0.0536240148526164,-0.0824568943926218,0.243179400337907,-0.0798174664299459,0.0079351912238182,-1.00145856813397,-0.0488521063707378,0.223334290276471,-0.0240402593495742,0.0700171654668781,0.0164611280844035,stand
0.285,-0.247720236900533,-0.0701987099520935,0.96374874589957,0.255928864570976,0.044831792968148,0.0539137064195801,-0.99732464845911,-0.0552165809669107,0.0716100492564785,0.240713694873729,0.0277139598747155,-0.0293028378778444,-0.994590279440698,-0.0565324275580209,-0.0841593636196684,0.242383757844543,-0.0818798146804884,0.0071973197776945,-0.99637435732742,-0.049805727729695,0.226169723964895,-0.0269530625944613,0.0774250315817394,0.018494426173765,stand
0.29,-0.247207069142658,-0.0734021781372826,0.962436443449166,0.251155978551367,0.0439812660826848,0.0504901169228032,-0.997556336694033,-0.0537828975911076,0.0730217218220755,0.237346822707471,0.0275461831237815,-0.0294713510067897,-0.995309618856374,-0.0586553660882936,-0.0847208460356108,0.239084026925803,-0.0831322183547611,0.0063929915146193,-0.990427137188289,-0.0506970809612379,0.229478782266719,-0.0295587060069817,0.083384121142354,0.0200989847121164,stand
0.295,-0.247429377358008,-0.075370368947919,0.961578706230646,0.244703163751587,0.042787245476731,0.0470457979263401,-0.997664983629001,-0.052498952848336,0.0743536166129747,0.232231793620573,0.0271815450050747,-0.0293532885528791,-0.996056494292358,-0.0600278385860314,-0.08424584664732,0.234012154504896,-0.0836383275271134,0.0056142194788704,-0.983729543958896,-0.0514423651676777,0.233221751027067,-0.031783738222558,0.0876951630795262,0.0212489104377903,stand
0.3,-0.248278993365621,-0.0763069699662429,0.961128646534901,0.237394102696862,0.0413848917635862,0.0439567785915025,-0.997689444145265,-0.0513585979989326,0.075548857657158,0.226060513906085,0.0266840687387852,-0.0289702943029762,-0.996826357027297,-0.0607872206808662,-0.0829880631581635,0.22785559256547,-0.0834597700665673,0.0049464117116206,-0.976420622484921,-0.0519726992136018,0.237338686284856,-0.0335566398855206,0.0901913674308508,0.0219427547995216,stand
0.305,-0.249525938838898,-0.0766366031941139,0.960938619931838,0.229851047645926,0.0398789583686375,0.041521765850985,-0.997678086889849,-0.0503054635794587,0.076577851030338,0.219346347281117,0.026089826673885,-0.0283374129822054,-0.997601239796782,-0.0611944782604647,-0.0813823258343447,0.221124438697791,-0.0826371960304263,0.0044533249944154,-0.968735112233389,-0.0522694755198344,0.2416995359427,-0.0348173252621812,0.0907541426062475,0.0221984640436509,stand
0.31,-0.250841814508475,-0.0769603658288283,0.960777600841588,0.222331423052771,0.0383170698279536,0.0398930600731313,-0.997683532595048,-0.0492415444084469,0.0774425584491938,0.212282287034959,0.0253928073337646,-0.0274592341012941,-0.998348701857026,-0.0616032276713589,-0.0800006611902553,0.214010523748025,-0.0811745251018622,0.0041605120843836,-0.96103583805507,-0.0523749063755532,0.24608155409737,-0.0355332770936333,0.0893437899866942,0.0220472190464663,stand
0.315,-0.251872794224139,-0.0779186759709165,0.960391227964635,0.214634568367003,0.0366757491057417,0.0390310512081283,-0.997753638135707,-0.048058150207015,0.078165755296859,0.204663186999082,0.0245387875858924,-0.0263293902444433,-0.999027308201853,-0.0623757289162654,-0.0794308142076629,0.206310300943521,-0.0790341252158339,0.0040453437670637,-0.953776042417552,-0.0523702281228146,0.250196306480959,-0.0357125381437984,0.0860283736416441,0.0215276182446537,stand
0.32,-0.252335199961213,-0.0800081961956578,0.959581583082208,0.206136145122192,0.0348666160296452,0.0387102210040195,-0.997920048186277,-0.0466765016403764,0.0787741409523861,0.195919175855337,0.023432147095714,-0.024934523418427,-0.999595555306326,-0.0637747241092838,-0.0801157231391533,0.197458346271121,-0.0761469784344771,0.0040390730293042,-0.947415535083858,-0.0523362084639712,0.253749662096144,-0.0354053027377234,0.0809943514405652,0.020680512572152,stand
0.325,-0.252100893524574,-0.0834108746369749,0.958279315659787,0.195961943300717,0.0327634044555457,0.0385836201531454,-0.998187836553476,-0.0450845327404769,0.079283419648219,0.185269338659124,0.0219570658958943,-0.0232622622404974,-1.00002137788685,-0.0658674431912883,-0.0822048425712877,0.186680440161034,-0.0724386184615754,0.0040422268128265,-0.942332314880003,-0.0523166825091956,0.256504554625467,-0.034693081384414,0.0745340457941075,0.0195457374409289,stand
0.33,-0.251239335766655,-0.0879016368398856,0.956579961383929,0.183264721285057,0.030243840916868,0.0382891623269447,-0.998531794535046,-0.0433554059320978,0.0796893154909594,0.171966127049158,0.0200096831903776,-0.021311234569066,-1.00029024832257,-0.0684816974365079,-0.0854781143487505,0.17323677084299,-0.0678660864005256,0.0039505159843912,-0.93875606869197,-0.0523009243001419,0.258325604058888,-0.0336707980224051,0.0670137610740936,0.0181631233800536,stand
0.335,-0.249989329308188,-0.0928992844772387,0.954719787957225,0.167514555716045,0.0272334678494447,0.0375592717662762,-0.998903093091886,-0.0416332203725328,0.0799685739131629,0.155554876765783,0.0175313978116845,-0.0190996657160988,-1.00040822759489,-0.0712479814361369,-0.0893984040660676,0.156679971317033,-0.062453043695134,0.0036834648295591,-0.936740853556486,-0.0522346527881708,0.259192926101558,-0.0324297347253193,0.0588303212142282,0.0165779586851749,stand
0.34,-0.2486626941009,-0.0976681873392036,0.952990688882035,0.148681002982095,0.0237345568901612,0.0362866261501187,-0.99924418573641,-0.0400844793070433,0.0800926443772699,0.136041008094759,0.0145296381852156,-0.0166687838783983,-1.00039646985344,-0.0737247844524278,-0.0932937469423007,0.137021143913587,-0.056306342141987,0.0032041188544801,-0.936188699847006,-0.0520578528464341,0.259180060211657,-0.0310483103815926,0.0503677393343538,0.0148462963431137,stand
0.345,-0.247525973962012,-0.10157913855811,0.951633602518176,0.127223575207682,0.0198281980088471,0.034518266456399,-0.999504714192639,-0.0388379450164011,0.0800486167684211,0.113886781839973,0.0110767430244458,-0.0140792526306125,-1.00027936810207,-0.0755496459235905,-0.0965848833590652,0.114726256198063,-0.0496046496068367,0.0025208823590303,-0.93691153442778,-0.0517478149580605,0.25840915691615,-0.0295934044369418,0.0419667318749143,0.013033869070686,stand
0.35,-0.246722976997031,-0.104290390160877,0.950767895241038,0.103912547883205,0.0156512270622725,0.0323920387498819,-0.999651383592794,-0.0379468568303283,0.0798549393865088,0.089851767691338,0.0072893242399281,-0.0114023383176949,-1.00007430011776,-0.0765381233400134,-0.0989378616163974,0.0905570961658687,-0.0425651340498865,0.001672495823129,-0.938691828995091,-0.0513361188974493,0.257012668822424,-0.0281282789310678,0.0339123103631111,0.0112070399682873,stand
0.355,-0.246267991293059,-0.10577284638474,0.950386267354076,0.0795912463885475,0.0113620254847235,0.0300591714631778,-0.999669593975963,-0.0373909447868364,0.0795626864928423,0.0647739881862544,0.0033004512197458,-0.0087098225141951,-0.999789241313051,-0.0766929131971203,-0.100280886761486,0.0653532780607657,-0.0354052577624225,0.0007064658902153,-0.941308806931605,-0.0508868070164902,0.255122237542676,-0.0267185185522121,0.0264332596473004,0.0094205856445448,stand
0.36,-0.246090123482197,-0.106211977912956,0.950398626685053,0.0549919066545028,0.0071108733789184,0.0276307404426119,-0.999559155063489,-0.037107606322376,0.0792431476378743,0.0393950779713693,-0.0007626601500864,-0.006066238435434,-0.999427105436157,-0.0761451282496722,-0.100718961512473,0.0398580856946826,-0.0283150173352198,-0.0003378765394895,-0.944534171039767,-0.0504557309250333,0.252877800840643,-0.0254295468054602,0.019703064455477,0.0077087647777657,stand
0.365,-0.246089454294807,-0.105872228547567,0.950687617186667,0.0306525813469095,0.003022954086305,0.0251586681765737,-0.999327529809248,-0.0370283996915509,0.0789697297449183,0.014277472812768,-0.0047898560056119,-0.0035249611701053,-0.99899094199276,-0.075075453741651,-0.100421895123129,0.0146359209611351,-0.0214451370143378,-0.0014366809310489,-0.948127178633065,-0.0500640824175857,0.250433675390623,-0.0243168471899834,0.0138379023981835,0.0060827159105423,stand
0.37,-0.246179643141169,-0.104988737954192,0.95115032068293,0.0069223165289195,-0.0008060447576512,0.0226425703642864,-0.998983056716878,-0.037104159129413,0.0788028074398235,-0.0101947499488989,-0.008689377708964,-0.0011278948771164,-0.998485918416373,-0.0736496238314183,-0.0995381892045226,-0.0099269435202282,-0.0149085973274448,-0.0025805057828156,-0.951848800140476,-0.0497011671353966,0.24794848656076,-0.0234158950943408,0.0088952334455286,0.0045331977635564,stand
0.375,-0.246312205236818,-0.103705401972911,0.951721242889606,-0.0159803612249375,-0.0043053936465116,0.0200505366839801,-0.998529769816913,-0.0373160277334463,0.0787821190458688,-0.0337634451836868,-0.012383048124922,0.0010923093597435,-0.997918636146603,-0.0719789561616115,-0.0981463144716197,-0.033570183757845,-0.0087903741291299,-0.0037685466685907,-0.955488698339779,-0.0493449898279847,0.245565248781368,-0.0227380627165703,0.0048779421762867,0.0030361397480111,stand
0.38,-0.246487473587575,-0.102048899536212,0.952382581935038,-0.0378853185893654,-0.0074196375044854,0.0173457811104086,-0.997965035715254,-0.0376779237967524,0.0789259239427331,-0.056221002879717,-0.0157983520949107,0.0031086536059416,-0.997296757130929,-0.0701021596523063,-0.0962327557811048,-0.0560843018163319,-0.0031612513716402,-0.0050011135183499,-0.958887216647885,-0.0489793127558454,0.243395068186147,-0.0222734278765661,0.0017447626523029,0.0015591292755232,stand
0.385,-0.246757896744495,-0.0999236333397384,0.953168035486362,-0.0585819178214131,-0.010096795147188,0.0145149029635965,-0.997280616123468,-0.0382357089698011,0.0792326315258867,-0.0773282936397668,-0.0188591875939123,0.0048957328865707,-0.996630879711015,-0.0679813841662848,-0.0936865193448477,-0.0772288462055437,0.0019069116810355,-0.0062716986968431,-0.961942157679421,-0.0485954971188243,0.241511557883311,-0.0219968537806513,-0.0005763218519403,6.82032542909505e-05,stand
0.39,-0.247226309724735,-0.0971231179451156,0.954161759051273,-0.0777319542388791,-0.0122767925131214,0.0115963408968468,-0.996466966472947,-0.0390635893551108,0.0796806808999781,-0.0967346617643653,-0.0214768147342079,0.0064259200262595,-0.995938036253112,-0.0655093237161088,-0.0903105463771689,-0.0966526997085324,0.0063265788555546,-0.0075590920556676,-0.964602592901318,-0.0481832661856553,0.239954220957348,-0.021873138242629,-0.0021756174756394,-0.0014650086129989,stand
0.395,-0.248036209397845,-0.093366056626508,0.95548842265246,-0.0947941947253696,-0.0138821427842956,0.0087084056375564,-0.995519990507747,-0.0402543846669262,0.0802257122252676,-0.113910654418542,-0.0235434219891233,0.0076664663526547,-0.995244455872109,-0.0625305570210589,-0.0858592963683625,-0.113827114814012,0.009983509359817,-0.0088203469077227,-0.966857845245348,-0.0477231359689583,0.238735071176945,-0.0218597945703251,-0.0031520934642567,-0.0030559824834981,stand
0.4,-0.24934444379386,-0.0883705329902318,0.957286266806917,-0.108980749968396,-0.0148135701252227,0.0060717859710723,-0.99444911397511,-0.0419001004086755,0.0807987148459317,-0.128113217918495,-0.0249317548291745,0.0085783296851848,-0.994585266500872,-0.058884835181276,-0.0801117600627232,-0.128011140514955,0.0127335372942594,-0.0099866244822008,-0.968727511896511,-0.0471904481510413,0.237844240597283,-0.0219090524927304,-0.0036062769680482,-0.0047010169737469,stand
0.405,-0.251266835486154,-0.0819718259890226,0.959657169551416,-0.119279587109491,-0.0149550109049109,0.0040116741041062,-0.993285208185748,-0.044062313031756,0.0813112667960584,-0.13841255187979,-0.0255042535661416,0.0091177283588165,-0.994000108330876,-0.0544774779277557,-0.0729792434131162,-0.138278462818664,0.0144120073896185,-0.0109652226393282,-0.970252927520863,-0.0465717002505943,0.237254193278093,-0.0219714821861248,-0.0036346591821586,-0.0063742838519398,stand
0.41,-0.253803843259013,-0.0742623009999853,0.962601721443036,-0.124580938633056,-0.0141929871998844,0.0029187065606389,-0.99208638275657,-0.0467377794236505,0.0816703122510424,-0.143809586946641,-0.0251336523403614,0.0092414127015668,-0.99352567948172,-0.0493660739122195,-0.0646257387299601,-0.143634444719015,0.014859416911752,-0.0116511922405325,-0.971487992890756,-0.0458848306250198,0.236924297456784,-0.0220022643428534,-0.0033252325041,-0.008030823258215,stand
0.415,-0.256782948238725,-0.0656884836746333,0.965970764141859,-0.123915959719519,-0.0124508192910733,0.0031601764098281,-0.990938746330545,-0.049833642433528,0.0817966872019366,-0.143447632639775,-0.0237334472223816,0.0089158990474365,-0.99318875447174,-0.0438245671043508,-0.0555456669502716,-0.143226881720087,0.0139619287584868,-0.0119490859892897,-0.972489289344377,-0.0451891528627627,0.236806590738224,-0.0219689398423125,-0.0027543883713466,-0.0096162658298277,stand
0.42,-0.25986833739661,-0.0570191133913471,0.969475680727883,-0.11674543513576,-0.009727499752105,0.0049664409151789,-0.989948834876308,-0.0531721156669331,0.0816370739720044,-0.136863827917948,-0.0212903233702913,0.008128872480365,-0.993004410633797,-0.0383304181375024,-0.0465262526527347,-0.136596396390769,0.0116959368974283,-0.011798933260125,-0.973307728989806,-0.0445713202355803,0.236852157425906,-0.0218574433848021,-0.001985383327611,-0.0110798641947435,stand
0.425,-0.262654616750473,-0.0491550970195828,0.972770665397876,-0.103168971527843,-0.0061219073901104,0.008347758343032,-0.989227045350477,-0.0565330116349859,0.0811640024088317,-0.124169892737797,-0.0178846463874126,0.006898498901449,-0.992981163257131,-0.0334536205668114,-0.0384691206665145,-0.12385652678575,0.0081570117054307,-0.0111945238885305,-0.973982962973873,-0.0441070512475814,0.237017544256283,-0.0216723903540313,-0.0010684813375144,-0.0123836742569528,stand
0.43,-0.264795770882371,-0.0428709252958551,0.975563430394326,-0.0839416948015782,-0.0018274334837874,0.01308804563343,-0.988866866342333,-0.0597145324514571,0.0803683791254122,-0.1060652150155,-0.0136873586641881,0.0052761526542111,-0.993128245022067,-0.0296983845657709,-0.0321494247985111,-0.105706960655641,0.003556782662454,-0.0101838958737892,-0.974539175870441,-0.0438199508586407,0.237270707425083,-0.0214296608178608,-4.30190435563361e-05,-0.0135021172676555,stand
0.435,-0.266089760343686,-0.0386402934349601,0.97768390315551,-0.0603007107081303,0.0028997938813084,0.0188127070878958,-0.988927501085517,-0.0625751336012256,0.079254481481698,-0.0836838737933885,-0.0089343403495404,0.0033413933892909,-0.993456727560369,-0.0273886409337425,-0.028048913301739,-0.0832813834003787,-0.0018106541991565,-0.0088528328983058,-0.97498105965762,-0.0436678521767658,0.237594908217572,-0.0211441932002122,0.0010585580351186,-0.0144133007848662,stand
0.44,-0.266478831882644,-0.0366293102520181,0.979076425868258,-0.0337179238220497,0.0077805903732051,0.0250825355436825,-0.989424317039592,-0.0650341719406467,0.0778441559030608,-0.0583770213661172,-0.0038918789280308,0.0011922457914585,-0.993970533708715,-0.0266500285404008,-0.0263389291733172,-0.0579307546831959,-0.0076136610037372,-0.0073028056598175,-0.97529192644969,-0.0435694125551149,0.237988295818539,-0.0208197115976568,0.0022055658721975,-0.0150902864672104,stand
0.445,-0.265991027148006,-0.0368126164327092,0.979740957524223,-0.0057084422060619,0.0125427556091689,0.0314634708056471,-0.990327066304595,-0.0670418910355068,0.0761882583257129,-0.0315442775073233,0.0011720488382733,-0.001064782149242,-0.994652320860925,-0.0274668324370789,-0.0269754345262315,-0.0310550909810485,-0.0135189918800284,-0.0056356236230604,-0.97543730358943,-0.0434532350556098,0.23845865359388,-0.0204460567955333,0.0033647226819643,-0.0155004976236309,stand
0.45,-0.264677381968082,-0.0391030769921875,0.979675903973625,0.0222522266358539,0.0169359627013242,0.0375528340442181,-0.991564960268314,-0.068548286221689,0.0743760355572929,-0.0045610476464738,0.0060046527040281,-0.0033222987951701,-0.995454634885538,-0.0297541222848429,-0.0298118569238099,-0.0040305235458468,-0.0192109308695278,-0.0039493317724403,-0.975374061677925,-0.0432957867262262,0.239016293365414,-0.0200046774009457,0.0044982873208069,-0.0156149503264261,stand
0.455,-0.262584869557847,-0.0434097884127192,0.978860677541127,0.048732151306494,0.0207363563762479,0.0429735801039788,-0.993038246748983,-0.0694948064717711,0.0725321770474927,0.0212258695138934,0.0103761631469756,-0.0054771491826446,-0.9963041963037,-0.0333969013208106,-0.0346579981858482,0.0217957143539504,-0.0243984703261565,-0.0023415159260471,-0.975061982728463,-0.0431246336094816,0.239669109547581,-0.0194778051112394,0.0055649030399536,-0.0154217108015711,stand
0.46,-0.259776511059337,-0.0495983499752697,0.977286207875453,0.0723401336087253,0.0237495816983848,0.0473635567218526,-0.994634128702569,-0.0698348942825999,0.0707961939450801,0.0444994903999892,0.0140852486188866,-0.0074345617566362,-0.997118965577928,-0.0382381485449442,-0.0412641631899031,0.0451070126121856,-0.0288207705204596,-0.0009122188752078,-0.974477737888173,-0.0429899056030123,0.240419023063617,-0.0188553083371656,0.0065221205533696,-0.0149351307653428,stand
0.465,-0.256383359714101,-0.0573842755099749,0.975014437082401,0.0917870985876147,0.0258199854268044,0.0503876617141232,-0.996242461021078,-0.0695716218243427,0.0692872309239153,0.0640333518989408,0.0169679223534923,-0.0091133051780017,-0.997829940562593,-0.0440281071969893,-0.0492557805225527,0.0646781369443611,-0.0322599360018645,0.000240506744978,-0.973634605044693,-0.0429283306421446,0.241254265163256,-0.018135847906093,0.0073305005220449,-0.014195272140147,stand
0.47,-0.252649663849069,-0.0662396717376898,0.97222789014097,0.106041778187867,0.0268488163824241,0.051786789557716,-0.99776793670775,-0.0687881492710707,0.0680680979547678,0.0788362709584782,0.0189117598236166,-0.0104528879567215,-0.998397862324009,-0.0503787792038553,-0.0580810119931787,0.0795194775651704,-0.0345637807018943,0.001034718722449,-0.972602291368724,-0.0429436756609704,0.242137776487096,-0.0173234143149938,0.0079606786731503,-0.0132578298998388,stand
0.475,-0.248924838285432,-0.0754100516608395,0.969227323570618,0.11453413484789,0.026815668855014,0.0514489610891755,-0.999139566432379,-0.0676458209810106,0.067128787348841,0.0883374230545177,0.0198707724213604,-0.011421035695286,-0.998819368490313,-0.0567827434229064,-0.0670437608423283,0.0890612876088025,-0.0356708651192008,0.0014235734341889,-0.971506425219292,-0.0430081712225932,0.243004300276285,-0.0164228747704042,0.0084027354539206,-0.0121794010921027,stand
0.48,-0.245584306751786,-0.0840775950594766,0.966362528926339,0.11729122972205,0.0257895698762424,0.0494608963782312,-1.00031886254934,-0.0663428549408701,0.0664014401488108,0.0925083120236532,0.0198711572995639,-0.0120168880401865,-0.999122618092968,-0.0627195893994596,-0.0754443505643458,0.093274915665258,-0.0356216723643939,0.0014087478500046,-0.970493180892125,-0.0430739411402065,0.243777620269184,-0.0154371703922585,0.0086723060029223,-0.0110038132890868,stand
0.485,-0.242915828995778,-0.0915901137678505,0.963928251986969,0.11490270646954,0.0239173123712177,0.0460995463627411,-1.00130314218401,-0.0650550414730755,0.0657982265301735,0.0918315093626255,0.0190003766792278,-0.0122663281331709,-0.999354836987307,-0.0677977093108883,-0.0827586398348943,0.0926413059770277,-0.0345432837384824,0.0010392148051556,-0.969675450536814,-0.0430864358581601,0.24439998398023,-0.0143664564509368,0.0088071087794242,-0.0097537641199877,stand
0.49,-0.241038421687078,-0.0976137803456104,0.962083388594925,0.108317808223492,0.0213892202853099,0.0417587306317691,-1.00211764943174,-0.0638924165460816,0.0652501321719744,0.0871207189634888,0.0173822262101164,-0.0122110054396363,-0.999565010033145,-0.071840336580594,-0.0887427257090617,0.0879714485690609,-0.0326112419621662,0.000395060000743,-0.969096882529436,-0.0430012691558859,0.244851901173097,-0.013208721306093,0.0088541590737396,-0.0084303156968853,stand
0.495,-0.239895119715887,-0.10213343354564,0.960831404483519,0.0985794277895084,0.0183963109324419,0.036845393910989,-1.00279696132906,-0.0628897215173661,0.0647297576231007,0.0792880426004096,0.0151497473665689,-0.0118968570919482,-0.999787168819935,-0.0748711018040012,-0.0934096258748659,0.0801744551290385,-0.0300069462527587,-0.0004352128488413,-0.968731727368558,-0.0428024762098947,0.245151044182148,-0.0119620649502848,0.0088548350977468,-0.0070206347255841,stand
0.5,-0.239308727149698,-0.105342225290415,0.960057090536422,0.0866114282887002,0.0150958777349875,0.0316902873207882,-1.00336595450103,-0.0620226800010807,0.0642552476536142,0.0691606651826466,0.0124270745364846,-0.0113668641654538,-1.00003146164144,-0.0770335224520624,-0.0969224854703083,0.0700750968906324,-0.0268880336734949,-0.0013738785919378,-0.968505205415184,-0.0425088670499939,0.245339548125221,-0.0106284084487832,0.0088343486525635,-0.00551080010135,stand
0.505,-0.239060868541679,-0.10751310621459,0.959588953172459,0.0731094069897642,0.01159505797109,0.0265000062617605,-1.00383059284911,-0.0612315759729673,0.0638820909540295,0.0573873060563742,0.0093228866573244,-0.0106583205316859,-1.00028637470691,-0.078508153914074,-0.0994851229203211,0.0583207957926923,-0.0233766313047719,-0.0023644216802184,-0.968310985267126,-0.042158570173411,0.245474411061548,-0.0092165924087746,0.0087961673757238,-0.0038972995072352,stand
0.51,-0.238959669031901,-0.10890943804162,0.959257382281084,0.0585208642802935,0.0079528895139587,0.0213534649185463,-1.00417830104886,-0.0604402709569949,0.0636919110168816,0.0444178293531792,0.0059316356710436,-0.0098021487390624,-1.00052707268529,-0.0794605201968592,-0.101272470174002,0.0453613065576574,-0.0195605363636767,-0.0033734065335513,-0.968022708883845,-0.0417836680757567,0.245623298499304,-0.0077424676644579,0.0087186553018722,-0.0021918663714669,stand
0.515,-0.238879842688856,-0.109737666460443,0.958931926820754,0.0430798032895043,0.0041962287282581,0.0162304461431119,-1.00438003489634,-0.0595692338128038,0.063783181633706,0.0305246436414483,0.002338616108399,-0.0088226719474088,-1.00072064462849,-0.080013989359083,-0.102396153520379,0.0314698321813473,-0.0155018655614447,-0.0043868651642456,-0.96751549423264,-0.0414004149939713,0.245855354904247,-0.0062262326235623,0.0085539453518717,-0.0004200263226036,stand
0.52,-0.238774350247554,-0.110122693974743,0.958534747034067,0.0268697399393496,0.0003428446523385,0.011054493699494,-1.00439012719271,-0.0585464592584151,0.0642604435663089,0.0158469576869775,-0.0013727261745559,-0.0077384014768719,-1.00082463423588,-0.0802319593132789,-0.102889972236923,0.0167869196087909,-0.0112511186565044,-0.0054045280772089,-0.966707595922593,-0.0410257133822003,0.246218440822579,-0.0046900073736798,0.0082334936333656,0.0013811096590688,stand
0.525,-0.238665022943306,-0.110095064534538,0.95803735122226,0.0099013803052254,-0.0035759147498649,0.0057347021176859,-1.00414865749418,-0.0573197138999025,0.0652151582003849,0.0004512975185132,-0.0051127183537831,-0.0065649869880174,-1.00078481401967,-0.0801069649726243,-0.102712820664473,0.0013807702417564,-0.0068649645259696,-0.0064339790970303,-0.965606710469548,-0.0407031177039063,0.246710142096228,-0.0031580504047335,0.0076844809051032,0.0031609434370673,stand
0.53,-0.238622191019987,-0.109592600150251,0.957451972823772,-0.0078050740416236,-0.0074998898742477,0.0001980325529688,-1.00359304115977,-0.0558700917789134,0.0666983133410677,-0.0155977412978213,-0.0087795364036654,-0.005320063087743,-1.00054156864091,-0.0795656454148418,-0.101771646516956,-0.0146820420186598,-0.0024230396016119,-0.0074852912809911,-0.964326647470104,-0.0405113875698773,0.247264305405606,-0.0016590529246174,0.0068542276234303,0.0048503572225642,stand
0.535,-0.238743450635024,-0.108479078138526,0.956826942092182,-0.0261440731657677,-0.0113362101257299,-0.0055879489719833,-1.00267889738118,-0.0542238099751813,0.0686939344585676,-0.0321680666539541,-0.0122583422986585,-0.0040279833463861,-1.00004798597456,-0.0784933953100643,-0.0999578360400324,-0.0312671791866889,0.0019628937991518,-0.0085657374070784,-0.963053444521263,-0.0405436829287205,0.24776906786993,-0.0002280140475632,0.0057315377914596,0.0063600099463208,stand
0.54,-0.239140114727948,-0.106571368878923,0.956249033596518,-0.0448633550490394,-0.0149657413925,-0.0115964797881675,-1.00140167746806,-0.0524585840869499,0.0711043107409839,-0.0490034953168857,-0.0154262046508788,-0.0027222367802292,-0.99929221288197,-0.0767671805633562,-0.0971800628111283,-0.0481161826900861,0.0061514876614788,-0.0096739671367488,-0.961978599816702,-0.0408699156179422,0.248107854693259,0.0010942124101067,0.0043533498387938,0.0075884526185452,stand
0.545,-0.239933999456885,-0.103662280976086,0.955848018533546,-0.0635169697434547,-0.0182544137767371,-0.0177217801560513,-0.999807212349519,-0.0507019087076199,0.0737540962461096,-0.0656829375042043,-0.0181605789686639,-0.0014450265455097,-0.998310902156468,-0.0742782762428324,-0.0933772807398209,-0.0648061468743643,0.0099838145370571,-0.0107935209071702,-0.961241611137771,-0.041507661595388,0.248197343064726,0.002263678221571,0.0027943147666469,0.008440568194091,stand
0.55,-0.241256283832433,-0.099540520182296,0.955792335874376,-0.0814296390977639,-0.0210625464934323,-0.0237584826919873,-0.997984511043114,-0.0491190929705562,0.0764159345235555,-0.0815920987788374,-0.0203472213615365,-0.0002454470766223,-0.997184772986529,-0.0709396739371952,-0.0885117332857328,-0.0807219922766933,0.0132974597571944,-0.0118866430584132,-0.960909340240873,-0.0424192562286609,0.2480038759052,0.0032369677201947,0.0011471866248031,0.008849449830558,stand
0.555,-0.243230791061944,-0.0940305724520957,0.956262795138625,-0.0976813715325217,-0.0232489117609161,-0.0293896355303608,-0.996044913475176,-0.0478886916187922,0.0788537084108627,-0.0959126717034425,-0.0218843500748973,0.0008220543781609,-0.996017874766478,-0.066695435743209,-0.0825670086091432,-0.0950460197328878,0.0159362470907632,-0.0128908126630173,-0.960986443824568,-0.043532780609022,0.247539701963949,0.0039742701756205,-0.0004957928216398,0.0087918696933557,stand
0.56,-0.245926925045732,-0.0870792701433238,0.957397513458864,-0.111143879858967,-0.024673710374394,-0.0341998310807179,-0.99410018690801,-0.0471643610000731,0.0808714340818638,-0.10765455978357,-0.0226841861041881,0.0016990631773669,-0.994910778749307,-0.0615586204024553,-0.0755886889234449,-0.10679003817341,0.0177562469727683,-0.0137215897097827,-0.961433736709384,-0.0447695173286219,0.246851108019515,0.0044415597956514,-0.0020552498729819,0.0082907882718119,stand
0.565,-0.249289020787321,-0.078882743769082,0.959219438916088,-0.120613084532992,-0.0252102023080405,-0.0377299351968722,-0.992251354380205,-0.0470288677418406,0.0823514055270096,-0.11577028870685,-0.0226779335121463,0.0023268258366388,-0.993939533107628,-0.0556834095465208,-0.0677791054282213,-0.11490914486306,0.0186362605499662,-0.0142851519179335,-0.962178103366512,-0.0460602018199473,0.246007684284258,0.0046126592169014,-0.0034711793071184,0.0074050038717539,stand
0.57,-0.253081313326557,-0.0699846436653449,0.961582806242893,-0.125055183585362,-0.0247715926176255,-0.0395758226213524,-0.99058973337254,-0.0474581681445288,0.0832676794533693,-0.119368881401216,-0.021830284572294,0.0026546643455237,-0.993147397442974,-0.0494305203025388,-0.0595934348355161,-0.118514596273758,0.0185009227856229,-0.0145006997369445,-0.963114685649833,-0.0473450773841126,0.24509416601338,0.0044721305834197,-0.0047063822598988,0.0062117202504255,stand
0.575,-0.256902319270634,-0.0612409298889621,0.964184128288109,-0.123905859613538,-0.0233466202985823,-0.0395045133012997,-0.989200381047235,-0.0483205143109197,0.0836697371645477,-0.11797737341656,-0.0201613964407054,0.0026522382516996,-0.992548958529011,-0.0433539390624348,-0.0517373571781681,-0.11713432775779,0.0173532100042578,-0.0143264142691584,-0.964113699948084,-0.0485673014263687,0.244201321792637,0.0040187664075209,-0.0057485882939799,0.004789633332904,stand
0.58,-0.26028802643206,-0.0536099989710617,0.966651862764968,-0.117283290265668,-0.0210239553246444,-0.0375352545097,-0.988157523201084,-0.0494215479731258,0.0836438986659703,-0.1117267904535,-0.0177635860011862,0.0023198559630586,-0.992140838671042,-0.0380741196210407,-0.0450123474793928,-0.11089839344927,0.0152985883550895,-0.0137769679790429,-0.965040525765209,-0.0496723084184092,0.243413861671048,0.0032678896265936,-0.0066106489414825,0.0032078798663278,stand
0.585,-0.262854963050677,-0.0478653781367003,0.968670726535582,-0.105988739022833,-0.0179871065394355,-0.0339408272208935,-0.987512936197364,-0.0505747113648325,0.0832707253140527,-0.101350162253764,-0.0147988807156887,0.0016901729245337,-0.991912616173293,-0.0340955776303181,-0.0400801873514851,-0.100537149243421,0.0125417604158838,-0.0129226258478624,-0.965782658926875,-0.050614975478202,0.242798821961472,0.0022506501166916,-0.0073274271033409,0.0015221289781113,stand
0.59,-0.264399064591933,-0.0444015409377444,0.970068386486165,-0.0912930301695652,-0.0144802477091875,-0.029170048224268,-0.987288406159081,-0.0516572637377983,0.0825964143755932,-0.087991028524927,-0.0114759666866326,0.0008199102370677,-0.991854715426519,-0.0316807319555796,-0.0372955305830286,-0.0871905028716942,0.0093541044203543,-0.0118705473841962,-0.966268644840574,-0.0513654101687989,0.24239940568304,0.0010105286363794,-0.0079496583149897,-0.000223901171065,stand
0.595,-0.264904000536226,-0.0432257764918758,0.970825618438918,-0.0746340928795575,-0.0107639691944961,-0.0237374090826392,-0.987480678620676,-0.0526269173102024,0.0816243282533525,-0.0729339881030942,-0.0080191829600126,-0.0002232326477827,-0.99196336390614,-0.0308446711342147,-0.0366962395725808,-0.0721393879088158,0.0060292831331158,-0.0107389675814519,-0.966472089150495,-0.051905553377807,0.242234111438261,-0.0004007272835758,-0.0085366942441878,-0.0019938722020655,stand
0.6,-0.264480192951813,-0.0440902144778363,0.971028131526745,-0.0573686872650556,-0.0070819103668514,-0.0181317417824325,-0.988076180908041,-0.0535048079015701,0.0803210597448037,-0.0573844202951316,-0.0046447520267637,-0.0013716180320961,-0.992243619747157,-0.0314432273751568,-0.0381173143228548,-0.0565862375526163,0.0028480528997246,-0.009635921026497,-0.966405837936161,-0.05221881790102,0.242297202772692,-0.0019255653569761,-0.0091496101432534,-0.0037526935806163,stand
0.605,-0.263287340189881,-0.0466553278647125,0.970804003141922,-0.0406452229910445,-0.0036470040303404,-0.0127681741837402,-0.989065405593094,-0.0543460063323692,0.0786300117354944,-0.0423564708603393,-0.001550996249217,-0.0025631054843284,-0.99271014687425,-0.0332817812680751,-0.0413307944029371,-0.04154341464006,6.19797850438606e-05,-0.0086478333541705,-0.966112366950225,-0.0522818395866819,0.242560359345609,-0.0035010447101785,-0.0098450043319762,-0.0054596827988832,stand
0.61,-0.261478221717427,-0.0506089406095715,0.970277374185915,-0.0253844970847879,-0.0006431924061808,-0.0079781984338987,-0.990448136530275,-0.0552131632433767,0.0764904657867674,-0.0286577450620255,0.0010803566821322,-0.0037413725628095,-0.993384208735138,-0.0361916921943589,-0.046138342532645,-0.0278180651191631,-0.0021070092291543,-0.0078370676614543,-0.965650161043442,-0.0520660875334038,0.242980368582334,-0.00505842908208,-0.0106700379397121,-0.0070623762749947,stand
0.615,-0.259172898333144,-0.0557221315032304,0.969545196462549,-0.0123218827632387,0.0017668951472075,-0.0040201897727516,-0.992227372713646,-0.0561578454421193,0.0738613050926442,-0.0169302155942488,0.0030790390458432,-0.0048535628317626,-0.994286287489493,-0.0400606174713346,-0.0523985005232002,-0.0160529634039399,-0.003460013402247,-0.0072451211301717,-0.96507518114236,-0.0515499098826706,0.243514844714271,-0.0065237730490997,-0.0116602591766138,-0.0084931963339352,stand
0.62,-0.25645520900742,-0.0618553923083,0.968670343231806,-0.0020689158472118,0.0034360760882528,-0.0010952470617502,-0.99439678976929,-0.0572090879952976,0.0707436839310313,-0.0077102022410196,0.0042834472800074,-0.00584762644121,-0.995426444525825,-0.0448276928997881,-0.0600087751077167,-0.0067862541941007,-0.0038152416837394,-0.0068984663991753,-0.964423249367334,-0.0507330434368705,0.244139007698335,-0.0078206312251144,-0.0128413769773075,-0.0096708817977726,stand
0.625,-0.25338005431334,-0.0689345162975833,0.967682549636492,0.0048307792406469,0.0042312843557771,0.0006381834850895,-0.996929667564604,-0.058368555934736,0.0671933922382296,-0.0014834139591892,0.0045424334203136,-0.0066707518466294,-0.996796406656604,-0.0504607855762499,-0.0688731431296403,-0.0005061355987924,-0.0030065322424564,-0.0068149363766925,-0.963703766588285,-0.0496421250804223,0.244851847570928,-0.0088742816574313,-0.014233860458683,-0.0105067519636974,stand
0.63,-0.249983683565377,-0.0769121020001099,0.966582107807944,0.0078615940997624,0.0040351169922281,0.0010502662780124,-0.999774322657557,-0.0596112849656224,0.0633184114987195,0.001277555760675,0.0037203059373302,-0.0072693026365014,-0.998366145168254,-0.0569291897445253,-0.07887557677508,0.0023120489428309,-0.0008863406317244,-0.007009231953876,-0.962910072372304,-0.0483223923516637,0.245665899577738,-0.0096152959610862,-0.0158569552151272,-0.0109138557024924,stand
0.635,-0.246294419326932,-0.085726514845195,0.965345201190798,0.0065141870004781,0.0027475704237707,2.41880790444325e-05,-1.00285518706207,-0.0608890132012739,0.0592667556120695,9.76465834362125e-05,0.0017026204239149,-0.0075900318033649,-1.00008458997858,-0.0641788069317307,-0.0898636545128276,0.001190595528059,0.002668348031131,-0.0074967054972444,-0.962040983985745,-0.0468223903398226,0.246586164517442,-0.0099806479646533,-0.0177287260258431,-0.0108165351958402,stand
0.64,-0.242344705617694,-0.0952659346273559,0.963931943892048,0.0002812093728609,0.0002872630428609,-0.0025592312586652,-1.00607546135672,-0.0621325983268137,0.0552137630368685,-0.0054959753434177,-0.001598369393358,-0.0075820346277616,-1.0018822314579,-0.0721117101029704,-0.101636592893151,-0.0043455967917997,0.0077484410787643,-0.0082951372276856,-0.961122366445798,-0.0451838678887259,0.247589431614287,-0.0099128065603108,-0.0198610219861017,-0.0101587824954095,stand
0.645,-0.238185642768899,-0.105339123159274,0.962297647910741,-0.0113294111688255,-0.0034062953274171,-0.0068305940520276,-1.00931761363871,-0.0632525858330084,0.0513540498205364,-0.0159530480663761,-0.0062382174310166,-0.0071989453603734,-1.00367304366486,-0.080567949480185,-0.113930476172716,-0.0147480119577117,0.0144040426564534,-0.0094246056611966,-0.960220339959852,-0.0434466858091784,0.248612313148376,-0.0093594026031646,-0.0222506409826347,-0.0089109138610892,stand
0.65,-0.233903231053672,-0.115649664845081,0.960406054000582,-0.0287610432076631,-0.0083669554561028,-0.0129285317585064,-1.01243916596727,-0.064140380804288,0.0478990085284636,-0.03166479072629,-0.0122335111083614,-0.0064014780646783,-1.00535339409075,-0.0893055688026777,-0.12639401253978,-0.0304090444051,0.0226345295944404,-0.0109057496318212,-0.959442956442341,-0.041672648980218,0.249551138762613,-0.0082767119810731,-0.0248691692160019,-0.0070757654915946,stand
0.655,-0.229634296950337,-0.125771542959123,0.958243994187845,-0.0523506976007979,-0.0145904046368892,-0.0209820480029049,-1.01526463286791,-0.0646742051854963,0.0450792898776033,-0.0529111699927259,-0.0195519006956056,-0.0051611528505972,-1.00679866725956,-0.0979793353426491,-0.13855283931022,-0.0516092240722766,0.0323762297454773,-0.0127567629677672,-0.958931455867498,-0.0399780818530952,0.250273266721803,-0.0066389898629979,-0.0276542319310237,-0.0046971427158146,stand
0.66,-0.225581111040858,-0.135129488432113,0.955840383385904,-0.0822454364498807,-0.0220155897796835,-0.0310808519876861,-1.01758120491125,-0.0647337704249806,0.0431482041948065,-0.0797875603816119,-0.0280972484999555,-0.0034657669806229,-1.0078644613858,-0.106127465335601,-0.149772612682038,-0.0784438080076962,0.0434857900002997,-0.0149890179558516,-0.958845123580479,-0.0385463742489977,0.25063637265196,-0.0044520034793642,-0.0305041474696201,-0.0018709772658132,stand
0.665,-0.222024690144619,-0.142990291757269,0.95329217059406,-0.11829594282669,-0.0305001405986402,-0.0432364094306253,-1.01914826113332,-0.0642251636232675,0.0423759219187389,-0.112111576668858,-0.0376905678255868,-0.0013257492277729,-1.0084006512562,-0.113176552368252,-0.15924037370891,-0.110729652856912,0.0557187363188083,-0.0176002761334745,-0.959341071910609,-0.0375957244953925,0.250511884626062,-0.0017644900500284,-0.0332768402979432,0.0012467649482606,stand
0.67,-0.219333513117413,-0.14847089491361,0.950791407072694,-0.159932736219928,-0.0397938668442062,-0.0573345145589981,-1.01972302551,-0.063112510181698,0.043023861765006,-0.149314571756473,-0.0480508099039715,0.0012202231291233,-1.00827812068272,-0.118464782227363,-0.16597974952162,-0.147897081567564,0.068706753091593,-0.0205641036186165,-0.960544254743086,-0.0373136814424493,0.249811284867911,0.001329276302539,-0.0357945218402169,0.0044446179633764,stand
0.675,-0.217956186514598,-0.150575123405975,0.948636482344183,-0.206032326371105,-0.0495173170661606,-0.0730802489490195,-1.01909424471806,-0.0614471691410179,0.0452998874371613,-0.19032566719298,-0.0587815401474992,0.0041009239188371,-1.00741753088359,-0.121278568649867,-0.168907134799198,-0.188874659241751,0.0819414278007963,-0.0238155458328913,-0.962507868993302,-0.0378003168552612,0.248512424964339,0.0046970900878796,-0.0378574827451296,0.0074763059573084,stand
0.68,-0.218380435346893,-0.148283909850671,0.947207593407323,-0.25479316412391,-0.0591551457643618,-0.0899421672259144,-1.01711351871898,-0.0593818105764638,0.0493117318345585,-0.233468254074046,-0.0693692246265596,0.0072089305250247,-1.00580790496676,-0.120909042890776,-0.166935250717345,-0.231986555908326,0.0947731907569842,-0.0272361607880744,-0.965180507023199,-0.0390502743664143,0.246676273354187,0.0081817993529445,-0.0392685698126006,0.0100920929695136,stand
0.685,-0.221047876918588,-0.140723450488901,0.946897539940496,-0.303668525003047,-0.0680750780043514,-0.107114023110727,-1.01371927598191,-0.0571584282290363,0.0550423127059804,-0.276412392364441,-0.0791973154916084,0.010397632508729,-1.00350960148196,-0.116746232664446,-0.159131288077578,-0.274905476249567,0.10643147712785,-0.0306446329912018,-0.968401236189466,-0.0409698081581652,0.244443937721082,0.0116142364028849,-0.0398636238867662,0.0120707313742762,stand
0.69,-0.226237164271239,-0.127401858790339,0.948010692842998,-0.349426571141652,-0.0755788716355542,-0.123522160972674,-1.00895330159888,-0.0550668512851041,0.0623572880921196,-0.316244187950963,-0.0875789346935972,0.0134811289725682,-1.00064352299451,-0.108416309239519,-0.144923014765526,-0.314721840650155,0.116068754660521,-0.0338003634500346,-0.971928825414185,-0.0434082255285232,0.242012569316592,0.0148240937284346,-0.0395385447134715,0.0132436346304922,stand
0.695,-0.233954107071086,-0.108446137676735,0.950664694927583,-0.38839620178012,-0.0809808296502674,-0.137903515242294,-1.00296979379267,-0.0533820809918402,0.0710333567801928,-0.349699288099027,-0.0938092845860902,0.0162407729987265,-0.997371998861264,-0.0959305401750288,-0.124311744517434,-0.348176225479088,0.122828140733438,-0.0364250020783284,-0.975496240842993,-0.0461898229051551,0.239596026025161,0.0176490661965299,-0.0382643500947386,0.0135071705842776,stand
0.7,-0.243878295325462,-0.084724898188296,0.954738983835796,-0.416895125907829,-0.0836972901690734,-0.148955545953952,-0.996033925384961,-0.052301364646488,0.0807843256611038,-0.373551330468879,-0.0972345202782452,0.0184411128353186,-0.993878105098946,-0.0797787690482556,-0.0980103693390704,-0.372046152611391,0.125928891352215,-0.0382404837887888,-0.978873901011793,-0.0491414477586568,0.237380183690232,0.0199422173076224,-0.0360850385944702,0.0128231493066685,stand
0.705,-0.255402831048999,-0.0577537311767189,0.959903254698598,-0.431741052611583,-0.0833240986641705,-0.155521162578147,-0.98850541982683,-0.0519084889889604,0.0912674383767368,-0.385064334254839,-0.0973257642378399,0.0198542455855536,-0.990350211785193,-0.0608981512734732,-0.0674151022952409,-0.383596861155161,0.124755055667979,-0.0390135199302934,-0.981916275871419,-0.0521115134030056,0.235489257117683,0.0215768950589743,-0.0330988414376539,0.0112111585384424,stand
0.71,-0.267767203054109,-0.0293740001528878,0.965724946516858,-0.430673312064876,-0.0796810169483151,-0.156741914273511,-0.980806008966713,-0.0521833099789052,0.102068981243871,-0.38235723169931,-0.0937399192217167,0.0202868977695653,-0.986975031698477,-0.0404991668677033,-0.0343795506651419,-0.380945076357806,0.118925699949073,-0.0385903534097413,-0.984567940725541,-0.054976187109997,0.233978748728031,0.0224493546532825,-0.0294317568393708,0.0087386961101561,stand
0.715,-0.280232710419673,-0.00133414177639,0.971808518293517,-0.412530023934661,-0.0728114092306018,-0.152120109418254,-0.973376772376231,-0.0530474649538709,0.112686620520635,-0.364546906119332,-0.0863508197204147,0.0196022774806556,-0.983935595959581,-0.0198167442128234,-0.0008740713955909,-0.363202678285638,0.108328232011216,-0.0369078986202337,-0.986829907910506,-0.0576342876019101,0.232854159989463,0.0224804823627768,-0.0252161939442434,0.00551438362563,stand
0.72,-0.29221331313213,0.025017573910904,0.977890468126226,-0.377153053365998,-0.0629412481252166,-0.141481027722314,-0.966637121096724,-0.0544109338397971,0.122535231497574,-0.331648204740056,-0.0752471150010344,0.0177316038020315,-0.981406647580402,8.75469198494017e-05,0.0313047122697476,-0.330378580041911,0.0931114643933987,-0.03397957419819,-0.988710491590644,-0.0599990387481751,0.232099727040943,0.02161798161385,-0.0205820281658033,0.001685502918099,stand
0.725,-0.303291167131895,0.0487828473028193,0.983834300203147,-0.325152076523432,-0.0504195829652976,-0.124888189452696,-0.960955856058078,-0.0561840973454137,0.130993514094821,-0.284348429167348,-0.0607087728259086,0.0146768695253882,-0.979543167637907,0.0183750758682283,0.0606433807958589,-0.283155484003467,0.0736540520269412,-0.0298688567507404,-0.990182447581444,-0.0619943840231235,0.231704307344002,0.019839201754143,-0.0156590583542469,-0.0025637049217445,stand
0.73,-0.313125171653652,0.0693372675206649,0.989538342883354,-0.257725712692569,-0.0356710146875851,-0.102589021936521,-0.956635351755434,-0.0582508736050315,0.137483229808958,-0.223831614209589,-0.0431802262415594,0.0105112574830591,-0.978463937241327,0.0343435593488087,0.0858477037257176,-0.222715828350203,0.0505324389699486,-0.0246694119263855,-0.991155715949651,-0.0635563565142635,0.231680232868771,0.0171541020034427,-0.0105865398642793,-0.007018553710813,stand
0.735,-0.321345487341756,0.0861112626609638,0.994835271661986,-0.176648427787386,-0.0191770196948084,-0.0750308777005871,-0.953900184157455,-0.0604345420102439,0.14155057333743,-0.151749998957459,-0.0232501616722248,0.0053816475401268,-0.978235237844003,0.0473190400517927,0.105741871667244,-0.150713776295346,0.0245014857462939,-0.0185022129509754,-0.991474188430525,-0.0646335212489598,0.232070522555157,0.0136087049741561,-0.0055253440254378,-0.0114487523656966,stand
0.74,-0.327529359982002,0.0984988147441687,0.999459850366797,-0.0843617293310331,-0.0014754078499287,-0.042918714528887,-0.952882254275786,-0.0624942282421377,0.142920353429976,-0.0702922949515108,-0.0016334637758737,-0.0004896375763106,-0.978859400435743,0.0566384524304748,0.119267107067633,-0.0693429535459386,-0.0035207522984533,-0.0115245624596923,-0.990946735636228,-0.0651820803350923,0.232936455441919,0.0092905247786522,-0.0006670068070109,-0.0156305758062754,stand
0.745,-0.331266005477861,0.105909589731939,1.00309116004088,0.0159805451788454,0.016846204318405,-0.0072514397732598,-0.953605679673763,-0.0641610008815679,0.14151565058497,0.0177792048310568,0.0208559175520609,-0.0068113556765757,-0.980271275496359,0.0617304628757031,0.125590720740033,0.0186276104216674,-0.0324833071278811,-0.0039379697301139,-0.98941311876711,-0.065160075113854,0.23432207818014,0.0043360867575434,0.0037675284426923,-0.0193714471146842,stand
0.75,-0.332242219404091,0.107860541541488,1.00541752239392,0.120599733758879,0.0351736095801312,0.0306982711362208,-0.955983026643261,-0.0651918814093287,0.137452541175753,0.109197904595286,0.0433458775493956,-0.0132425638813939,-0.982344181151208,0.0622164189997586,0.124230970027705,0.109924290964408,-0.0612566234209446,0.0040127221497636,-0.986829973994222,-0.0645305567000527,0.236202888460641,-0.0010636025921783,0.007545536762545,-0.0225306272867048,stand
0.755,-0.330293550110177,0.104033922365759,1.00618359437973,0.225290260867956,0.0528965010258274,0.0694502279877021,-0.959830161026898,-0.0654184581019479,0.131015982726117,0.200351986329154,0.0649552747987575,-0.0194223736282809,-0.984905830162149,0.0579705969677147,0.115122017543824,0.200929732553279,-0.0887032947945118,0.0120474922111403,-0.983347967371106,-0.0632765279022956,0.238437774014818,-0.0066668181694379,0.0104584969605245,-0.0250305749664861,stand
0.76,-0.325423078803909,0.094319501171337,1.00522260724267,0.325675639661656,0.069432970111604,0.10740680943456,-0.964896405712043,-0.0647829690101729,0.122614349678572,0.287492358135148,0.084842866792076,-0.025004720456091,-0.987763736693974,0.0491421843403942,0.0986234235240485,0.287892582333152,-0.113751794264615,0.0198634001946537,-0.97933604052946,-0.0614165401645727,0.24075547632015,-0.012198619879329,0.0123706831375893,-0.0268555750994333,stand
0.765,-0.317808314422055,0.078869942240316,1.00248828498041,0.417502411797295,0.0842449277605749,0.142959712433203,-0.970901038073502,-0.0633600517052106,0.112715863576341,0.366975765697315,0.10225132367586,-0.0296926556433394,-0.990737011071753,0.0361555494622079,0.0755021415460436,0.367171866022313,-0.135462820917456,0.0271513893899682,-0.975308944348291,-0.0590051362615872,0.242806196047259,-0.0173791761335201,0.0132626513703385,-0.0280370476486536,stand
0.77,-0.307790923718843,0.0581350914391096,0.998076257927568,0.496953970083184,0.0968494488283613,0.174609231930219,-0.977568149076743,-0.0613545325258794,0.101784349722945,0.435529345692224,0.116543681365129,-0.0332665134321948,-0.99368635056734,0.0196735286391637,0.0468742515476455,0.435501786122421,-0.153079072876461,0.0336182590334522,-0.971763038457068,-0.0561148480872971,0.244273784824184,-0.021953808486165,0.0132441721532858,-0.0286286002420403,stand
0.775,-0.295828053900462,0.0328135635927598,0.992207972031665,0.560920578532479,0.106828951692929,0.201073522919206,-0.984654342303125,-0.0590657794455713,0.0902342541796308,0.490481535676709,0.127227475671041,-0.0355999897612987,-0.996530500090406,0.0005014237747483,0.0140731703216908,0.490221811462056,-0.166048395089331,0.039009156716059,-0.969003165215454,-0.0528146387876805,0.24499016807138,-0.0257155999999652,0.0125220488325254,-0.028677963580868,stand
0.78,-0.282408548072767,0.0037216094297423,0.985170900436492,0.607139777316695,0.113835825734585,0.22135403557808,-0.991965151443128,-0.0568270229807038,0.078410523660916,0.52988342231849,0.133960588409807,-0.0366607289262132,-0.999242198745162,-0.020547359793105,-0.021541466002397,0.529396638717809,-0.174015121679094,0.0431219551478869,-0.967066069640629,-0.0491631609853455,0.244980060142977,-0.0285166859333916,0.0113358650147766,-0.0282052213394917,stand
0.785,-0.267973657522969,-0.0283421006239796,0.977246582163073,0.634176584467581,0.117585643202567,0.234742875247661,-0.999358129015327,-0.0549454254993494,0.0665840910125351,0.552491487142059,0.136537703665041,-0.0364975946465665,-1.00182826290521,-0.0427628264031805,-0.0587590119863515,0.551797616267573,-0.176786452984844,0.0458085265278682,-0.965774152476756,-0.0452195886341326,0.244415586320434,-0.0302700242476356,0.0098946262418011,-0.0271940633929998,stand
0.79,-0.252880289749168,-0.062662919592347,0.968665633435382,0.641297533504096,0.117841324020404,0.240790520722224,-1.00673460737365,-0.0536633032918551,0.0549539353279657,0.557656977508844,0.134864207199032,-0.0352209649318271,-1.0043060289008,-0.0655850520577081,-0.0966105006214654,0.556791143845998,-0.174290279067085,0.0469660702490656,-0.964859388707507,-0.0410587801955091,0.243524938114891,-0.0309455439919597,0.008341132432674,-0.0255960287694703,stand
0.795,-0.237405198905774,-0.0986114999111712,0.959597863609463,0.628316118877655,0.114398161083676,0.239261963418197,-1.01402583236839,-0.0531400588929084,0.0436559787236021,0.545189750806026,0.128927316933359,-0.0329817164894674,-1.00668573388962,-0.0885991709691703,-0.134379947364187,0.544201825225227,-0.166538640314951,0.046525319889418,-0.964071355611098,-0.0367782646846064,0.242514782234921,-0.030563398997183,0.0067483614617169,-0.0233427121905408,stand
0.8,-0.221759742148038,-0.13562990332443,0.950156934772632,0.595445388445717,0.107076556974808,0.230093544888224,-1.02117941168488,-0.0534428003358251,0.0327819514158247,0.515229348089996,0.118770644737269,-0.0299512522718666,-1.0089613085156,-0.11151737224578,-0.171579297452466,0.514183017545258,-0.153600854611626,0.0444395631037019,-0.963226685971067,-0.0324961647252723,0.24153464415484,-0.02918565905624,0.0051352023301512,-0.0203609703494812,stand
0.805,-0.206091954772806,-0.173235398609713,0.940399945421167,0.543151871120283,0.0957206396440113,0.213347034781031,-1.02814924206365,-0.0545373602616208,0.0224068224583687,0.468119564631372,0.104473706295997,-0.0263027333619689,-1.01110768399164,-0.134170796652189,-0.207922449260476,0.467091046147614,-0.135582916159338,0.040674533158122,-0.962207739097001,-0.0283457797838174,0.240677118790874,-0.0269076778415545,0.0034864947752105,-0.016588590482305,stand
0.81,-0.190481868509066,-0.211027240986016,0.930324728605406,0.471995105181173,0.0801969272977987,0.1891539390523,-1.0348882610975,-0.056282175581202,0.0126181205921592,0.404273500046554,0.0861357586357078,-0.0221932171053819,-1.01308215620674,-0.156503422330356,-0.243295446443928,0.403350111280798,-0.112608916772106,0.0351979780388723,-0.960939863704151,-0.0244699862385379,0.239994376811535,-0.023850312733572,0.0017683384152455,-0.0119895951742129,stand
0.815,-0.174968678293828,-0.248625320341313,0.919895885237286,0.382467021620051,0.0603928127772701,0.157655055893009,-1.04133971403726,-0.0584395150409022,0.0035347302330143,0.324042116851974,0.0638653598412248,-0.0177473133097848,-1.01482898803266,-0.178526241680855,-0.277673011444038,0.323320837296957,-0.08480602056245,0.0279701543770347,-0.959377585254923,-0.0210138656292991,0.239511633209196,-0.0201531158431564,-6.30270904909687e-05,-0.006568337378219,stand
0.82,-0.159650177415527,-0.28546529128986,0.909134223832399,0.274915772367343,0.036227886532336,0.118968313665018,-1.04742278598047,-0.0607182029321129,-0.0046980537918229,0.227661113460705,0.0377832875286174,-0.0130449293898646,-1.01628798484239,-0.200187773079218,-0.310928158377785,0.227246894820136,-0.0523055319627259,0.0189426528581969,-0.957517991520211,-0.0181135176531873,0.239225429976475,-0.0159676782950152,-0.0020543640410817,-0.0003794896088101,stand
0.825,-0.144834241348782,-0.320495459084789,0.898253060808758,0.149672584496847,0.0076984009913712,0.0732320402647646,-1.0530155963322,-0.0628378654923693,-0.0119357402453108,0.115380664305292,0.0080491158271055,-0.008116184911506,-1.01740645041349,-0.221187294896497,-0.34257472702675,0.11538368959358,-0.0152766910698155,0.0080761170786228,-0.955432849994256,-0.0158835168215626,0.239090177609159,-0.0114507611315661,-0.0042443751073736,0.0064707375475052,stand
0.83,-0.131145942997302,-0.351976682521597,0.887756659509795,0.0074045414280179,-0.0250397369211066,0.0207346114256844,-1.05794638252759,-0.0645789637237479,-0.0180612157014234,-0.0122030987157363,-0.0250885548617502,-0.0029437453654775,-1.01815022609874,-0.240844740927889,-0.371595625721129,-0.0116722073652558,0.0260060186204537,-0.0046210405202167,-0.953286896826547,-0.0144095868921522,0.239011473873896,-0.0067581695430487,-0.0066471027643975,0.0138343366772036,stand
0.835,-0.119497392605156,-0.377577851095108,0.878416339060878,-0.150452336387789,-0.0615743165466784,-0.0379236915979847,-1.06200144103571,-0.0657907273370257,-0.0229843379921992,-0.153747487051349,-0.0612355990284052,0.0025304957018177,-1.01850806408872,-0.25813152685409,-0.396491676192748,-0.152584943499502,0.0710868603981867,-0.0190464079794628,-0.951314318365631,-0.0137504741658273,0.238863793221624,-0.0020407986367293,-0.009236116690557,0.0215382209494207,stand
0.84,-0.110920013642489,-0.394762595421485,0.871121355307231,-0.321396025478948,-0.101168178488086,-0.101719683905241,-1.06494684828549,-0.0663656308996414,-0.0266090346112627,-0.306890572096935,-0.0998136930912146,0.00839714925828,-1.01848708547296,-0.271853739236209,-0.415533256374435,-0.305008588979162,0.119278046766704,-0.0349706221770993,-0.949756471475318,-0.013945404350701,0.238532258113492,0.002557075961188,-0.0119389019405483,0.0293998147372779,stand
0.845,-0.106344975085671,-0.401279023678299,0.866680479709488,-0.501821138430772,-0.142748244058168,-0.16919692878428,-1.06655263147412,-0.0662134375379015,-0.0287867381561234,-0.468220536708264,-0.140052960948164,0.0147689065691267,-1.01810234621509,-0.280881895184015,-0.427070531925096,-0.465557017684111,0.169652120623827,-0.0520307150569038,-0.948793283734058,-0.0150201087701872,0.23795842187172,0.0068992240614055,-0.0146466303307592,0.0372351217210081,stand
0.85,-0.10642708623034,-0.395546132705171,0.865660532527883,-0.687214109910402,-0.184955873738154,-0.238548549791397,-1.06661004776703,-0.0652601038327942,-0.0292833782289605,-0.633464641636197,-0.181013179392772,0.0217651538244575,-1.01736592101148,-0.284320035630996,-0.429763216469187,-0.629991921511301,0.221072035330179,-0.0697487624532643,-0.948507863259945,-0.0169890458456697,0.23716300987215,0.0108610161249002,-0.0172361823100503,0.044858017321121,stand
0.855,-0.111464628843955,-0.376833396973411,0.868309004424098,-0.87246122334659,-0.226242572967577,-0.307748240333064,-1.06494015170327,-0.0634760083657036,-0.0277789425545452,-0.797790679237389,-0.221621601626247,0.029489480898707,-1.01627992395955,-0.281567292065913,-0.422674722092135,-0.793522173359361,0.272240361856208,-0.087565495574242,-0.948906523748181,-0.0198565357067326,0.23622953187069,0.0143355365937448,-0.0195938209892583,0.0520739602388158,stand
0.86,-0.12141590739439,-0.34525407097325,0.874560420775655,-1.0521383659999,-0.264987274332863,-0.374677303217182,-1.06139852590228,-0.0609224699116047,-0.0239015255915529,-0.956101942954981,-0.260715193482799,0.0379998595528007,-1.01483583775303,-0.272292193322877,-0.405258664053475,-0.951096003003171,0.321748755151888,-0.104876647107997,-0.949980409521744,-0.0236173738756873,0.235258195171799,0.017239954804734,-0.02162793976254,0.0586737958503201,stand
0.865,-0.135967214020954,-0.30168523076127,0.88408698861315,-1.22070974581048,-0.299614561825318,-0.437216456846113,-1.05588465857048,-0.057793015587154,-0.0172809205770534,-1.10325699142661,-0.297081269513995,0.047273648609085,-1.01302043445012,-0.256392199040506,-0.377325384976829,-1.09761747945257,0.368118748243228,-0.121064458957623,-0.951758410765545,-0.028252339606632,0.234324565954787,0.0195191905374081,-0.0232655061882547,0.0644334281000283,stand
0.87,-0.154591106413595,-0.247727762113457,0.896345132100176,-1.37266983760242,-0.328704933039611,-0.493312252727022,-1.04836221865161,-0.0544191841465605,-0.0076035074086544,-1.23423858141232,-0.329500374592996,0.0571735702431896,-1.010826286087,-0.234013807328206,-0.339081195017384,-1.22811157717127,0.409841770083103,-0.135525692301262,-0.954301379285503,-0.0337164220878087,0.233476074049784,0.0211461447594015,-0.024440523891412,0.0691218241299927,stand
0.875,-0.176572638170644,-0.185701779986156,0.910606522615682,-1.50273583065333,-0.351097021135435,-0.541056159810576,-1.03888722210589,-0.0512251394157751,0.0053355072396201,-1.34435920649189,-0.356800994450199,0.067425145337216,-1.00826310818668,-0.20563664253303,-0.291250876583192,-1.33792518341201,0.445437094932724,-0.147703201940934,-0.957641071972527,-0.0399275459124241,0.232763038005821,0.0221201258973812,-0.0250903937728712,0.0725146761801741,stand
0.88,-0.201036576524199,-0.118555483176124,0.926006478920549,-1.60615230949133,-0.36597684304688,-0.578796956651207,-1.0276322240077,-0.0486473238763702,0.021573721685572,-1.42955035664923,-0.37792976230484,0.0776160197947034,-1.00536639954322,-0.172141042739696,-0.235188756112719,-1.42301162667152,0.473537536025371,-0.157123769214695,-0.961722995128371,-0.0467664094220008,0.232264743081348,0.0224646394561599,-0.0251672397453424,0.0744085107653786,stand
0.885,-0.227016392539467,-0.0495940340221523,0.94163837782798,-1.67904972076558,-0.372938080565032,-0.605262317182357,-1.01489495307719,-0.0470553456187196,0.040918985490038,-1.48667879602191,-0.392027944881161,0.0872211350258268,-1.00220219893719,-0.134778781397714,-0.172869074332796,-1.48024312776226,0.492990940734243,-0.163434847810324,-0.966402633672847,-0.0540847188272724,0.232079184100454,0.0222238247539,-0.0246549633984449,0.0746323612125466,stand
0.89,-0.253572652649338,0.0179245638777727,0.956672408793874,-1.71873374240028,-0.371996055006607,-0.619644249156457,-1.0010840109239,-0.0467008934385656,0.0629177519582778,-1.51378009578383,-0.398497720882384,0.0956492944369656,-0.99886855867923,-0.0950447495069774,-0.106730456974526,-1.50764263729778,0.502952564681487,-0.166428357842879,-0.971483560511113,-0.0617049770712491,0.232286216490937,0.0214570541526105,-0.0235780570462144,0.0730587874933969,stand
0.895,-0.279874880972277,0.0811790449141889,0.97047080790952,-1.72382320241429,-0.36354986730712,-0.621622425754485,-0.986698329036043,-0.0476983792710927,0.0868387739542754,-1.51013935565988,-0.397044960763953,0.102301780816012,-0.995492553766862,-0.0545136892405765,-0.0394373558152996,-1.50446570584297,0.502948227077508,-0.16604456597349,-0.976751758105617,-0.0694018226144464,0.232915897058381,0.0202333959530458,-0.0219981371059501,0.0696181765909676,stand
0.9,-0.305194543384305,0.138023889812531,0.982655021956545,-1.69424099345371,-0.348304165923974,-0.611333860307814,-0.97230642411806,-0.0500225652902476,0.111680489531115,-1.47622938787869,-0.387693918803952,0.106633293448177,-0.99221862527393,-0.0147119923326959,0.0263502570929369,-1.47114252028372,0.492901875690918,-0.162358420660513,-0.98198239467654,-0.0768772561819068,0.233938682925939,0.0186284893900687,-0.0200042399402381,0.0643168535169014,stand
0.905,-0.328893365010012,0.187037724787102,0.993060201286783,-1.63112891335891,-0.32717440942516,-0.589320482950487,-0.958494647155078,-0.0535070047517263,0.136296823227161,-1.41357780266122,-0.370777439610208,0.108208092946967,-0.989186216827279,0.0229474879399652,0.0881420495755889,-1.40915062502533,0.473133198049631,-0.155558170669097,-0.986931111525494,-0.0837534314330466,0.235271541040802,0.0167247561935005,-0.0177035941886035,0.0572529502366659,stand
0.91,-0.350412381229911,0.22745466151341,1.00163365508416,-1.5367596353956,-0.301197435602967,-0.556483755567232,-0.945798410202904,-0.0578441677439711,0.159574549198024,-1.32463597653186,-0.346909024979844,0.106747102105226,-0.986502769431467,0.0572012037199785,0.143735835506958,-1.32089012281139,0.444334209054252,-0.145926160122826,-0.991334462337039,-0.0895965892678004,0.236788053590033,0.0146134278459592,-0.015214660521458,0.0486212945027181,stand
0.915,-0.369252259326088,0.259090479757696,1.00837849150573,-1.41444529484465,-0.271452953279137,-0.514045977563798,-0.93464857668682,-0.0626070379691024,0.180549215764965,-1.21265583436559,-0.316938560932802,0.102160951740134,-0.984223795003368,0.0870006384307202,0.191353542225758,-1.20956638610403,0.407525912098058,-0.133823056105866,-0.99493330364715,-0.0939681297952148,0.238327792601502,0.012395096948056,-0.0126601386304348,0.0387037084680173,stand
0.92,-0.385007338298919,0.282297856445633,1.01334674568483,-1.26836952103855,-0.238990182390075,-0.463490657941268,-0.925331298048152,-0.0673088438323597,0.198481784052423,-1.08151534883316,-0.281889137751671,0.0945609312409773,-0.982348481388882,0.111616348050963,0.229808124184561,-1.07902053289379,0.363988064992078,-0.119668639425677,-0.997510538569824,-0.0964873927476488,0.239710312092543,0.0101756510051201,-0.0101573798847562,0.0278485766180558,stand
0.925,-0.39743470507659,0.297897545702816,1.01665040533738,-1.10329471353088,-0.204760024173094,-0.4064635591861,-0.917968062610098,-0.0714886340505609,0.21291035322377,-0.935454272254504,-0.242876942533368,0.0842420336744745,-0.980831447027004,0.130722363620357,0.258632295186291,-0.933468464536492,0.315161012840977,-0.103914595262647,-0.998917749166138,-0.096888178097374,0.240763978262201,0.0080573704022732,-0.0078077158459518,0.0164457695189157,stand
0.93,-0.406503143400286,0.307051601606997,1.01847156680884,-0.924182314982108,-0.169562052410839,-0.344647053908235,-0.912525384098452,-0.0747908198919623,0.223664802366042,-0.778753042802197,-0.201024836675845,0.0716411026247349,-0.979605727767358,0.144410261023374,0.278100539461198,-0.777180843733362,0.262532708634082,-0.0870124848713123,-0.999073003177459,-0.0950573578044738,0.241371421101155,0.0061283962116751,-0.0056910890017104,0.0049007732610762,stand
0.935,-0.412405432003828,0.311109196213299,1.01906586927339,-0.735802451937467,-0.134012380380816,-0.279633655558491,-0.908848702783984,-0.0770144797418379,0.230841600741816,-0.615416894859815,-0.157382684657628,0.0572803778450874,-0.978609018324459,0.153135599811383,0.289137556761076,-0.614166115729126,0.207529791117014,-0.0693826112176949,-0.997940137048193,-0.0910544196710733,0.241514433853211,0.0044539986374996,-0.0038717958331505,-0.006389896357382,stand
0.94,-0.415528566402209,0.311455518985967,1.01875227016827,-0.542394083085977,-0.0985322357324134,-0.21281783632123,-0.906710274861935,-0.0781232766636804,0.234740645419641,-0.448911807065668,-0.11286471665931,0.0417082503746927,-0.977803630180214,0.157617057714858,0.293132741284382,-0.447903850623636,0.151427921601839,-0.0513877809816151,-0.995518268787571,-0.085114443348321,0.241290100822633,0.0030707527988816,-0.0024136578046446,-0.0170608057951246,stand
0.945,-0.416374524060922,0.309356729613953,1.01787561534253,-0.347429709536566,-0.063358325499916,-0.145321504997402,-0.905862374473499,-0.0782163012687678,0.235776801372511,-0.281993317891872,-0.0682124630201329,0.0254482989434739,-0.977183149340975,0.158693363942464,0.291674041404399,-0.281170196312959,0.0952930390048026,-0.0333162750348919,-0.991860387120064,-0.0776324503233736,0.24088097047151,0.0019836497616867,-0.0013947501640384,-0.0267972944430166,stand
0.95,-0.415441483996073,0.305797279973522,1.01674226841494,-0.153542013811807,-0.0285782291009953,-0.077970687481304,-0.906087569409045,-0.0774707076746179,0.234387374862065,-0.116673099074144,-0.0239900692618147,0.0089662711859019,-0.976765633938001,0.157149266072914,0.286236474649993,-0.11600095398891,0.0399624824514184,-0.0153794998569711,-0.987113918508789,-0.0691262266924723,0.240487642623276,0.0011667374219223,-0.0009099874192543,-0.0353529386686193,stand
0.955,-0.41310428910001,0.301345545712949,1.01555272988606,0.0373589568893433,0.0058108848263025,-0.0113352667237809,-0.907236199102382,-0.0760793172150195,0.230956694867823,0.0456565246496297,0.0193873937346833,-0.0073400232386714,-0.976579873593314,0.153553057087208,0.277905526632825,0.0461870732450162,-0.013932434487231,0.0022730355288226,-0.9815556054873,-0.0601820141556339,0.240253938480749,0.0005674457442524,-0.0010556147296878,-0.0425631113380383,stand
0.96,-0.409542432321513,0.296102082906256,1.01436340910623,0.223815513595717,0.0398309990425045,0.0541747770320663,-0.909242307432153,-0.0742086652523574,0.225771489994456,0.203976443136259,0.0616017745525554,-0.0231310447380866,-0.976653374581237,0.148162853224394,0.267226839115999,0.204352485827575,-0.0659123299065017,0.0195256233951487,-0.975587042000474,-0.0513933944109174,0.240221892546361,0.0001131488323821,-0.0018997801214683,-0.0483510367970032,stand
0.965,-0.404742375240638,0.289755067497294,1.01309475463075,0.404497484717338,0.0734560756272945,0.118185182927234,-0.912115260377846,-0.071989144809931,0.219010779702176,0.357358871863095,0.102372429228521,-0.0381062035415156,-0.977007240052745,0.140933322963601,0.254224866310322,0.35754915198704,-0.11558278472013,0.0362653705825871,-0.969671144389944,-0.0433025251893364,0.240341166103229,-0.0002816366985636,-0.0034532971437058,-0.0527233425536511,stand
0.97,-0.398563423974518,0.28171398545489,1.01157661974968,0.577933806095651,0.106564045350627,0.180245829665818,-0.915912211653843,-0.0695285781895688,0.210765134749796,0.504740384481685,0.141406267703156,-0.0519864205739572,-0.977656515132912,0.13160731158255,0.238555649348173,0.504700212609749,-0.162573602938705,0.0523590590265966,-0.964226662911754,-0.0363502026749739,0.240525193616694,-0.0007070060765271,-0.0056577278655173,-0.0557557381222215,stand
0.975,-0.39082870047388,0.271260728628121,1.00960372646009,0.742369101467425,0.138914723455499,0.239765569939594,-0.920701955779119,-0.0669302757589914,0.201074291489697,0.644799446669438,0.178367005065396,-0.0645059484424066,-0.978610303650945,0.119844172281227,0.219709440948362,0.644475986644879,-0.206496634203827,0.0676432233004218,-0.959534707009383,-0.0308415557873505,0.24071380429142,-0.0012466451613838,-0.0083986279349807,-0.0575736575165022,stand
0.98,-0.381403212547916,0.257672153631036,1.00697783294706,0.895750782631011,0.17015052555087,0.296004969876949,-0.926530886487301,-0.064302992493443,0.189970483560966,0.775935645475331,0.212864555245476,-0.0754150434733506,-0.97986806858914,0.105339515411003,0.197190510677177,0.775273292891236,-0.246925970994518,0.0819259189534,-0.955708071184674,-0.0269328649322827,0.240900513165351,-0.0019641191913217,-0.0115355676104789,-0.0583339668823812,stand
0.985,-0.370243643112016,0.240310245739594,1.00353263824999,1.03581385200712,0.199812118082138,0.348116448972566,-0.93339779946967,-0.0617628943688608,0.177517167191674,0.89632244021568,0.244460701183917,-0.0844914735899208,-0.981414372788061,0.0879176168236278,0.170650937085306,0.895268290733635,-0.283398971895952,0.0949954931500831,-0.952727842036474,-0.0246380925902789,0.241115877594337,-0.0028896646764536,-0.0149316925221996,-0.058211115640306,stand
0.99,-0.357422818562828,0.218698025828002,0.99915039305482,1.16022946955757,0.227363406556167,0.395212997784901,-0.941239813661799,-0.0594322636703552,0.163837193023396,1.00401135271832,0.272687335114631,-0.0915577900565502,-0.983216805129266,0.0675956768297257,0.139986613104261,1.00252077276013,-0.315434921723277,0.106633087246745,-0.950508629973479,-0.0238479520303045,0.24139198583226,-0.0040115895769237,-0.0184708575953708,-0.0573870505087035,stand
0.995,-0.343131972067323,0.192585074676676,0.993774632589449,1.26678982028102,0.252224046765385,0.436447369975051,-0.949929102971057,-0.0574356560253996,0.149128508325725,1.09707309805958,0.297074520000233,-0.0965005991296869,-0.985228599184143,0.0446163424630386,0.105397200590885,1.09511518079437,-0.342566847362772,0.116627435762783,-0.948950977227463,-0.0243564822982918,0.24173742542839,-0.0052748560392914,-0.0220617166879432,-0.0560424529484087,stand
1.0,-0.327662205954899,0.161994715645191,0.987416871145505,1.35359625456145,0.273807645159337,0.471084564926349,-0.959278629728169,-0.0558924152144038,0.133666771606689,1.17375408284857,0.317184663014048,-0.0992871711625103,-0.987393871899809,0.0194450497465604,0.067404555985312,1.17131653153002,-0.36437975733101,0.124790143022393,-0.947966460287046,-0.0258937393469877,0.242132904361185,-0.0065874466310705,-0.0256347207787342,-0.0543481056712278,stand
1.005,-0.31137420472076,0.127257298798451,0.98015909898486,1.41922258537736,0.291562175973932,0.498556598419103,-0.969054106632887,-0.0549066530023305,0.117793860084077,1.23262681199636,0.332648592224489,-0.0999753792575507,-0.989653766805681,-0.007257796152439,0.0268362474690614,1.22971965705092,-0.380548926231991,0.130969755467833,-0.947484387999486,-0.0281601914603473,0.242539976380791,-0.0078331562437979,-0.0291373365199299,-0.0524567622424683,stand
1.01,-0.294664550320244,0.0890278165694355,0.972153876881319,1.46284562776924,0.305009547219939,0.518500316836396,-0.978990405024402,-0.0545540020971803,0.101894604539493,1.27272591210925,0.34320042465089,-0.0987147265062359,-0.991952941783361,-0.0346828208826922,-0.0152225280049708,1.26938337933706,-0.390874813469947,0.135064798337765,-0.947449833828566,-0.0308546095345547,0.242913789234103,-0.0088871660567701,-0.032529584269708,-0.0504960158512963,stand
1.015,-0.277926947750227,0.0482527973618357,0.963613364846498,1.4843293461985,0.313780877802049,0.530779152765454,-0.988811909474149,-0.0548629483897274,0.0863712573167785,1.29365309229923,0.348707109207226,-0.0957366670908653,-0.994244591125906,-0.0619483359622777,-0.0575245281495289,1.28993301945728,-0.395310255976512,0.13703505285529,-0.947812212834544,-0.0336918360933947,0.243218293706625,-0.0096295911018175,-0.0357811480244943,-0.0485628671931761,stand
1.02,-0.261522515483645,0.0060695943877927,0.954781294793383,1.48422549178682,0.31764203365544,0.535479851179974,-0.998252017548002,-0.0557978318239905,0.0716307068335639,1.29561179819413,0.349186002805158,-0.0913333696530817,-0.996491863437007,-0.0882033127739126,-0.098795020776057,1.2915924794506,-0.393972182153667,0.136906817341407,-0.948506576517201,-0.0364146493785892,0.243442115368552,-0.0099539624938147,-0.0388721013956713,-0.0467215282939262,stand
1.025,-0.245767641093686,-0.0363040825147646,0.945919478977512,1.46368351115977,0.316507866669645,0.532883320201016,-1.00707256610202,-0.0572577376747636,0.058059946322346,1.27935816563236,0.344806914186529,-0.0858287009517412,-0.998666559298453,-0.11270710303325,-0.137843638547866,1.27513314925208,-0.38713522346101,0.134769627970215,-0.949441464519868,-0.0388044785860262,0.243606998570785,-0.0097712193672466,-0.0417971842109585,-0.0450049452918295,stand
1.03,-0.230943501817994,-0.077625301723136,0.937327069772495,1.42433024540162,0.31045254028803,0.52343126418455,-1.0150805184523,-0.0590939190325686,0.0459770622319575,1.24611702016901,0.335882829397936,-0.0795492951842155,-1.00074781762849,-0.134846857340775,-0.17360861113787,1.24178864364225,-0.375215315322953,0.130768898757517,-0.950498698849037,-0.040691689462056,0.243765751191907,-0.0090119289964005,-0.0445703783993224,-0.0434178983238084,stand
1.035,-0.21733804546232,-0.116648703391238,0.929344342704844,1.36818048211969,0.299722007678484,0.507708085228926,-1.02212753835196,-0.0611325517027589,0.0356128506789423,1.19751686749306,0.322855309936946,-0.0728013449331493,-1.00272101837563,-0.154119918761591,-0.205167322764715,1.19318919379986,-0.358751121224492,0.12510019251139,-0.951534206461026,-0.0419660876809975,0.243996396381448,-0.0076288004003044,-0.0472286427533395,-0.0419398861873469,stand
1.04,-0.205262611810631,-0.152180340821023,0.922319673129621,1.29757158150572,0.284740877840211,0.486430414628515,-1.02810367590848,-0.0631939711411959,0.0271137113903058,1.1355404129356,0.306274977014846,-0.0658539240545151,-1.00457499440097,-0.170129028502952,-0.231766345499844,1.13131222171189,-0.338381206855844,0.118004305973997,-0.952384545500233,-0.0425884634851783,0.244390605399732,-0.0055999548574872,-0.0498367357005006,-0.0405295054362751,stand
1.045,-0.195009342842565,-0.183161228482947,0.916568151958568,1.21508887931016,0.266099483787815,0.460427427932714,-1.03294076148042,-0.0651132092248329,0.0205252205162803,1.06246198237487,0.286775228712499,-0.0589286637832647,-1.00629798857093,-0.182592922076992,-0.252866491717577,1.0584206115589,-0.314813954072918,0.109759047257903,-0.952906563208125,-0.0425974704105755,0.245022144719288,-0.0029323796254435,-0.0524893582441086,-0.0391327254905949,stand
1.05,-0.18680565418805,-0.208737747619941,0.912339764649399,1.1234848646283,0.244517678213784,0.4306124146339,-1.03661741009984,-0.0667630015870949,0.0157797172937069,0.980773018641082,0.265041173148142,-0.0521965134134831,-1.00787597845925,-0.191352793715234,-0.268172883783162,0.976989726333046,-0.288795879175185,0.100667557942123,-0.953047105179551,-0.0421007858429555,0.245900276070814,0.0003358952105275,-0.055299803543383,-0.0376934743657065,stand
1.055,-0.180786933451694,-0.228324974293977,0.90979781782509,1.0256063870756,0.220794411469403,0.397954137420183,-1.03916243586291,-0.0680675118564561,0.0127041579077514,0.893107265369477,0.241777067114419,-0.0457805068912057,-1.00929565531848,-0.19638575661136,-0.277659018785869,0.889634347384124,-0.261084271336515,0.0910457916169324,-0.952884431389141,-0.0412468888310015,0.246945437860724,0.0041370230315798,-0.0583722345061009,-0.0361619247375508,stand
1.06,-0.176962447088755,-0.241707128652633,0.908991499471464,0.924301521861344,0.195752151585535,0.363441169291311,-1.04065881187617,-0.0689956907903252,0.0110472292456297,0.802141685607839,0.217671485799697,-0.0397606436193471,-1.01054955590896,-0.197851737027128,-0.281614815972675,0.799011280184639,-0.232419146391923,0.0812085225024775,-0.952591335877468,-0.0401883329697823,0.248016810772426,0.0083793592180318,-0.0617721336486811,-0.0344979060503042,stand
1.065,-0.175170166195355,-0.249166637265887,0.90981546345844,0.822251346296756,0.17017780282518,0.328020009630316,-1.04124447439676,-0.0695393365441984,0.0105236421089906,0.710427278687023,0.193357271203206,-0.0341773323993894,-1.01163872892616,-0.196161488339044,-0.280705802783156,0.707651838853385,-0.20348424286916,0.0714498858558513,-0.952341301435771,-0.0390525237650431,0.248975777207781,0.0129575147987044,-0.0655140060730292,-0.0326710987668691,stand
1.07,-0.17505602666703,-0.251545611293408,0.911986717444785,0.72171817993921,0.144760631204372,0.292502612997973,-1.04110469564594,-0.0696962558053329,0.0108591793764049,0.620145187089506,0.169368041852412,-0.029033240744803,-1.01257198541348,-0.19200374775484,-0.275973815353537,0.617719706980239,-0.174856452059423,0.0620174943302352,-0.952223695640705,-0.0379265309035059,0.249742306088594,0.0177638801685852,-0.0695718810143426,-0.0306608143613914,stand
1.075,-0.176123049827352,-0.250134045427364,0.915081521724379,0.624293900039049,0.120037261709539,0.257473164643825,-1.04045400074124,-0.0694763642004373,0.0118143883343269,0.532864851009281,0.146101137278523,-0.0242965081142253,-1.01336508109178,-0.186271701231266,-0.268714240564138,0.530770695568638,-0.146958496569434,0.0530873361871789,-0.952212200597879,-0.0368523590214926,0.250316505181143,0.022698960184131,-0.0739035114512643,-0.0284550357669355,stand
1.08,-0.177844610735559,-0.246394495117999,0.918631252418186,0.530779063534563,0.0963619678935547,0.223242556377092,-1.03951111684709,-0.0689248431911061,0.0131795911526656,0.449422598409573,0.123799871258045,-0.0199083579167363,-1.01404072890139,-0.179899660859653,-0.260254139377712,0.447632258340461,-0.120035268242236,0.0447513331161888,-0.952191248724092,-0.0358331069695371,0.250762310500298,0.0276786808113875,-0.0784753637494932,-0.0260458955682665,stand
1.085,-0.179768779636409,-0.241678196291681,0.922214445098201,0.44125330958246,0.0739111737970132,0.189873005342547,-1.03847454035798,-0.0681332005500628,0.014757853288972,0.369975968744912,0.102560036614389,-0.015794976837796,-1.01462419827308,-0.173701911034385,-0.251754750458905,0.368457793447024,-0.0941627386247428,0.0370229925158012,-0.952028942635245,-0.0348589061638234,0.251159451998976,0.0326367347433725,-0.083277241364728,-0.0234221435334368,stand
1.09,-0.181542684760204,-0.237096481322075,0.925481222240266,0.3552583496226,0.0527089213298525,0.157242994355395,-1.03750648942036,-0.0672166048435893,0.0163595693268994,0.294163661364486,0.082351775530216,-0.0118798873956625,-1.01513110041968,-0.168307151726038,-0.244151401467548,0.292885997940875,-0.0692788732038051,0.0298534125214515,-0.951671039542494,-0.0339502311142116,0.251539607361395,0.0375197455767755,-0.0883171421978166,-0.0205651918892154,stand
1.095,-0.182866217337005,-0.233557421900008,0.928117393351192,0.271951544842344,0.032649811089834,0.125099914513606,-1.03672860428004,-0.0662704942127197,0.0178151999727929,0.221243000217769,0.0630418789394282,-0.0080923275288631,-1.01555471525192,-0.164193477787967,-0.23821594462559,0.220177817510523,-0.0452167222377772,0.0231442616693089,-0.951203645815602,-0.0331898668151868,0.251843074480212,0.0422758686773819,-0.0935946769499479,-0.0174549144835857,stand
1.1,-0.183449431752538,-0.231834767299838,0.929814061238156,0.19016474038772,0.0135095626939299,0.0930783367787842,-1.03622621484215,-0.0653404710269627,0.0189933581575605,0.150144674791513,0.0444094256039773,-0.0043697707766857,-1.01586492940444,-0.161747281274315,-0.234623305757641,0.149270969711988,-0.0217280620070478,0.0167523930163912,-0.950834282781909,-0.0327124314036056,0.251932010871621,0.0468429867279388,-0.0990670747283714,-0.014082995224403,stand
1.105,-0.183027708957604,-0.232552114241909,0.930289242251356,0.108419975732404,-0.0050464551632975,0.0607061138720826,-1.03605410869451,-0.0644236959243103,0.0198095902302176,0.0794895813956676,0.0261595529275399,-0.0006559201717259,-1.01602101167584,-0.161275684471955,-0.233933626443177,0.0787965083533611,0.0014996781437001,0.0104920995256538,-0.950801235493538,-0.0326563588877771,0.251653554635367,0.0511442742414178,-0.104630364850436,-0.0104646791403417,stand
1.11,-0.181423879544456,-0.23608043485985,0.929348516321812,0.0249884552901357,-0.0234410954334439,0.0274309601908916,-1.03623821207174,-0.0634911779880653,0.0202217763493175,0.0076451246150671,0.0079435264920031,0.0031031417991489,-1.01598790989946,-0.162965082926304,-0.236503685345051,0.007134363789713,0.02482406931234,0.0041435632130234,-0.951283174984674,-0.0331170687435343,0.250901497184987,0.0550929371989805,-0.11012652297237,-0.0066416733623709,stand
1.115,-0.178614435646466,-0.242416747054609,0.92694445608013,-0.0619688080749244,-0.042143701812096,-0.0073215290971443,-1.0367722154172,-0.0625109128430223,0.0202169960117814,-0.0671431153556978,-0.0106119929501825,0.0069624513931297,-1.01574518349764,-0.166819811716183,-0.242392160556022,-0.0674563055525409,0.0486199346539877,-0.0025295066740252,-0.95236984134537,-0.0341317667411767,0.249633418180856,0.0586006910715849,-0.115366474773212,-0.0026762436569874,stand
1.12,-0.174772571359723,-0.251097251815546,0.923211939048083,-0.154192729756978,-0.0616131342374581,-0.0440681151718042,-1.03761171899086,-0.0614629104587388,0.019797584112976,-0.146555401445449,-0.029868971953199,0.010980127151867,-1.01528705482345,-0.172611180700857,-0.251297402233967,-0.14664278701732,0.0732427777787754,-0.0097553707791458,-0.954085540086198,-0.0356914760833517,0.247850363451312,0.0615839709968062,-0.120151551397095,0.0013585557715336,stand
1.125,-0.170285164933443,-0.261162424254035,0.918479823647252,-0.25307947656687,-0.0822328333143958,-0.0831794778229661,-1.03866919175999,-0.0603491456012777,0.0189734129139828,-0.231963714470192,-0.0501386932260986,0.0152172297242784,-1.01461894448298,-0.179848972172703,-0.26252801160339,-0.231786448261941,0.0989861299815105,-0.0177263372005719,-0.95641426835273,-0.037757169969592,0.245577024489515,0.0639668593781241,-0.124286736008514,0.0053880257332522,stand
1.13,-0.16574418933103,-0.271185060171027,0.913261191148065,-0.359420661300928,-0.104243980478574,-0.124792122243957,-1.03981247631268,-0.059202250452776,0.0177648560995776,-0.324183737698267,-0.0716413496251071,0.0197350478949479,-1.01375466769658,-0.187782777971932,-0.275004884478781,-0.32369642002663,0.126036575679729,-0.0265701430710629,-0.959297863274382,-0.0402670460189112,0.242863464597286,0.0656833022756352,-0.127591450080997,0.0093428105043545,stand
1.135,-0.161899569808524,-0.279388989573981,0.908210637403339,-0.473162880786073,-0.12768449855753,-0.168731128046947,-1.04086997054382,-0.0580894342642681,0.0162168077885004,-0.423244702608614,-0.0944676671783461,0.0245894565760957,-1.0127141378421,-0.195449471893158,-0.287319829157855,-0.422400877579031,0.154431435369703,-0.0363240274283486,-0.962624422523551,-0.0431395982026251,0.239795552240186,0.0666801774975518,-0.129913921728419,0.0131640601371048,stand
1.14,-0.159553591773473,-0.283888926840959,0.904030875545722,-0.593244775060977,-0.152348591762927,-0.214463226420631,-1.04164602450306,-0.0571024125430094,0.0144198399506613,-0.528232665059639,-0.118549648180121,0.0298228648304798,-1.01151973521524,-0.2017874777613,-0.297889975339714,-0.52699116071044,0.184027450964154,-0.0469173952105212,-0.966238275889465,-0.0462822073988878,0.236490120222399,0.0669197239657816,-0.131146571309643,0.0168069892364094,stand
1.145,-0.159398984957085,-0.283036252093214,0.901331212683883,-0.71759298929908,-0.177787144827012,-0.261108461429975,-1.04194634052881,-0.0563281641528972,0.0125319412497301,-0.637282942484257,-0.143651237321266,0.0354559206814203,-1.01019055988093,-0.205816214024695,-0.305212313455312,-0.635614066930696,0.214492614070225,-0.0581709368744936,-0.969979371408432,-0.0496076835132653,0.233067568712473,0.0663784714212984,-0.131233901813096,0.0202420700151983,stand
1.15,-0.16185247307889,-0.275766972210407,0.900483951499503,-0.843337285553273,-0.203361438089698,-0.307532061645344,-1.04160524561856,-0.0558102901213279,0.0107919957694556,-0.747775588588998,-0.169387023602697,0.0414822040415817,-1.00873568419694,-0.20682787175749,-0.308143195084088,-0.745665973077724,0.245330656989867,-0.0698175962686431,-0.973730621934103,-0.0530514813213533,0.229617784701073,0.0650416645405032,-0.130166879848059,0.0234523574149942,stand
1.155,-0.166969569127824,-0.261792197561969,0.901552692828814,-0.967213497952073,-0.228337996297204,-0.35250429293931,-1.04050299922499,-0.0555257621415798,0.0095126026816906,-0.856703290031247,-0.195265698587927,0.0478678130474157,-1.00714973870664,-0.204500417603232,-0.306072666001626,-0.854158408991766,0.27593444164087,-0.0815419649882016,-0.97744287648713,-0.0565783975549669,0.226183701778336,0.062895988110716,-0.127965935646497,0.0264261518625995,stand
1.16,-0.174491675122725,-0.241537930953694,0.904334463631714,-1.08600965609294,-0.251988639852569,-0.394871688425454,-1.03856851115498,-0.0553985646202629,0.0090419571593848,-0.961080773334996,-0.220742718086504,0.054554220502477,-1.00541491133712,-0.198872856762163,-0.298911963715945,-0.958124879284528,0.305649138194167,-0.0930244219167628,-0.981122986427253,-0.0601734581016024,0.222773866435737,0.0599257297308035,-0.124661910601455,0.0291467690117345,stand
1.165,-0.183986189262259,-0.21590414050102,0.908480337353449,-1.19688324656355,-0.273661092772883,-0.433671630576491,-1.03577506571045,-0.0553462472311148,0.009700266398306,-1.0582432343032,-0.245265299172245,0.0614602516635508,-1.00351081746646,-0.190219036579371,-0.286942638140849,-1.0549171855593,0.333824006991971,-0.103974253645247,-0.984794276897765,-0.0638216015902671,0.219394469775227,0.0561156835229003,-0.120284851939158,0.0315836013102295,stand
1.17,-0.194979327055725,-0.186021739278037,0.913611044131587,-1.29747964120461,-0.292812200094241,-0.468163280148554,-1.03214162666005,-0.0553296990023333,0.0117154361693212,-1.14597213419535,-0.268303904682066,0.0684807411961134,-1.00143010861794,-0.178926904785734,-0.270664091632934,-1.14232987733645,0.35984583219797,-0.114145222791749,-0.988446090762405,-0.0674829834980422,0.216085100786987,0.0514599894355386,-0.114865234815126,0.0336888390734006,stand
1.175,-0.207009026492785,-0.153134008077974,0.91937054189089,-1.38592451876073,-0.309021947334903,-0.497806014286573,-1.02774489943602,-0.0553745209549398,0.0151837234801513,-1.22250973099669,-0.289376515742696,0.0754845065190706,-0.999195446766587,-0.165463628685272,-0.250739807494689,-1.21861402441822,0.383163988323321,-0.123339166096676,-0.991983138161368,-0.0710693019461921,0.212949747144646,0.0459739909435503,-0.108447909276135,0.0354025887359248,stand
1.18,-0.21960853697322,-0.118577396159945,0.925426614146442,-1.4608194761215,-0.322009234241377,-0.522239964526074,-1.02273332894343,-0.0555542905919972,0.0200603027349,-1.28656990510212,-0.308074627127189,0.0823177381127224,-0.996870669956434,-0.150408571658947,-0.22802703510038,-1.28248764423955,0.403321450840866,-0.13140763057542,-0.995197712498577,-0.0744356584200567,0.210169348279214,0.0397059079488133,-0.101116751395747,0.0366661665579707,stand
1.185,-0.232288166750966,-0.0837428060218385,0.931464780267591,-1.52130149115967,-0.331652181775318,-0.541296254393999,-1.01732589366038,-0.0559523432161295,0.0261676698517038,-1.33739283229846,-0.32409250531523,0.0888162961165599,-0.994557278408712,-0.134465214045762,-0.203593182290681,-1.3331903386924,0.419994155866192,-0.138256208971395,-0.997809062309165,-0.0774092510617823,0.207968321594457,0.0327432766007273,-0.0930199421348674,0.0374389215193464,stand
1.19,-0.244569891622058,-0.0499522052793282,0.937198552204447,-1.56711643631572,-0.337998870145058,-0.555019758398684,-1.01178389994263,-0.056627978115565,0.0332233528819593,-1.37479907622364,-0.337251944702805,0.0948233818280442,-0.992373637332615,-0.1183946370745,-0.178646129565682,-1.37053780917927,0.433024439450312,-0.143848331688153,-0.999582498851898,-0.0798523066961807,0.206528279780399,0.0252077574928629,-0.0843752623102353,0.0377108928365603,stand
1.195,-0.256032126152607,-0.0183093951350903,0.942396717107972,-1.59862598882068,-0.341256579496629,-0.563672115483836,-1.0063737723288,-0.0575994639445892,0.0408668350861445,-1.39917767515316,-0.347512890186269,0.100205191181842,-0.990426777925115,-0.102907328993566,-0.154398281109577,-1.39491074976801,0.442431088973784,-0.148203611211409,-1.00045620663429,-0.0817177304375569,0.205898842083546,0.0172369973394841,-0.0754407562709372,0.0375057821904435,stand
1.2,-0.266318865909476,0.0103850504676449,0.946908170882194,-1.61673592953467,-0.341762179888992,-0.567706213822164,-1.00133978876422,-0.0588365631316602,0.0486888559163931,-1.41140503118771,-0.354966905146942,0.104860884623481,-0.988792375417877,-0.0885870315125066,-0.131932488232946,-1.40717470878898,0.448392946517148,-0.15139081795957,-1.00057109752135,-0.0830534105236012,0.205976866310601,0.0089617532299814,-0.0664625515271524,0.036874613459604,stand
1.205,-0.275167511632222,0.035658605395493,0.950657713297288,-1.62279282583735,-0.339942494755038,-0.567725538405741,-0.996873236088696,-0.060255356847815,0.0563171174152155,-1.4127404593927,-0.359816397830534,0.10872898394386,-0.987510945429413,-0.075858364174164,-0.112091392385883,-1.4085767388726,0.451216665753193,-0.153518570327314,-1.00017869165618,-0.0839531151636892,0.206570998211104,0.000490410760465,-0.0576319229595769,0.0358848232109848,stand
1.21,-0.282461829865698,0.0574030535657933,0.953645950010579,-1.61846297485494,-0.336266168064007,-0.564432030571769,-0.993080256571883,-0.0617237343728346,0.0635113392596395,-1.40471192857115,-0.36234087057145,0.111791921236011,-0.98659617772124,-0.0649481406264608,-0.0953568260358688,-1.40063263155753,0.451295701818049,-0.154722759217936,-0.999503911038216,-0.0844901442219208,0.207499094465854,-0.008092737311131,-0.0490750264391044,0.0346103418677673,stand
1.215,-0.28827404797765,0.075934825904053,0.955976069640993,-1.60554830695251,-0.331183929182455,-0.558548108306252,-0.989961176715654,-0.0630883542904909,0.0702025950254568,-1.388952679004,-0.362848279247918,0.114075106631548,-0.986045373824109,-0.0558183996842367,-0.0817166570792306,-1.38496558655497,0.449056754791092,-0.155145608819465,-0.998653427897953,-0.0846719897837478,0.208655921863933,-0.0167179239844949,-0.0408734501020101,0.0331267079814419,stand
1.22,-0.292888124351354,0.092005586008033,0.957866240974138,-1.58571231616044,-0.325062134257541,-0.550708566125105,-0.987400243093759,-0.0642179277291143,0.0764970307285859,-1.36696534728343,-0.361614007681793,0.115635024964834,-0.985844024819119,-0.0481155785103826,-0.0705866978379411,-1.36307253614814,0.444891176286736,-0.154905325400193,-0.997603888818164,-0.0844350795961638,0.210025948387884,-0.0253165882769847,-0.0330977245127216,0.0315121351763028,stand
1.225,-0.296778268538836,0.106693530489777,0.959619185636619,-1.56016526001931,-0.318124724521761,-0.541346587112034,-0.985172673835441,-0.0650438205804337,0.0826542197150142,-1.33985562064846,-0.358819081698541,0.116535391444636,-0.98596265677923,-0.0411940295554582,-0.0608645157959948,-1.33605926185735,0.439081105891882,-0.154063680446906,-0.996255871677029,-0.0836785307651344,0.211649458907723,-0.0338124589992433,-0.0258348885184181,0.0298518898483748,stand
1.23,-0.300525346056164,0.121170729359839,0.961553166413396,-1.52940802029668,-0.310420560945516,-0.53061348768533,-0.982977635781617,-0.0655808294692021,0.0890355916451087,-1.30811949396,-0.354504205925374,0.116816693236836,-0.986350160151641,-0.0342385920211001,-0.0511404937721575,-1.3044275525516,0.431739166996091,-0.152603203837063,-0.994514567397887,-0.0823171203688527,0.21356825106228,-0.0421224134655666,-0.0191974437789765,0.0282416712684475,stand
1.235,-0.304683084491028,0.136399353022734,0.963913337712033,-1.4931370050273,-0.301828459187687,-0.518367296730702,-0.980496836911767,-0.0659202136228271,0.0960282787696807,-1.27156978916845,-0.348554831691528,0.116469183674663,-0.986931118413354,-0.0264714455701752,-0.0400325780733068,-1.26799976782002,0.422782116010395,-0.150424460480918,-0.99234592224795,-0.0803222221340225,0.215786058342082,-0.0501663954936452,-0.0133123393782522,0.0267867223152082,stand
1.24,-0.309629352249278,0.152853801165883,0.966793760548231,-1.45037563707466,-0.292104228174866,-0.504245306942077,-0.977468547404608,-0.0661970209065059,0.103953089879415,-1.22945567876039,-0.340725945990425,0.115421047934618,-0.987612843120751,-0.0173848604659569,-0.0265576069651332,-1.22603503122928,0.411953585619708,-0.147368334040692,-0.989776950866267,-0.077730097385717,0.218265537940091,-0.0578792052809131,-0.0083012154066315,0.0255958811239478,stand
1.245,-0.315456908812457,0.170378878910359,0.97010373272575,-1.3998170182125,-0.28096152715792,-0.487802845105422,-0.973757256381034,-0.0665446253096305,0.112968834103038,-1.18075971025406,-0.330704046174406,0.113549203622022,-0.988301215445098,-0.0069102002181975,-0.0104199494085714,-1.17752271460428,0.398897063735298,-0.143258880814469,-0.986857479995149,-0.0746258106842674,0.220950816545181,-0.0652160580008602,-0.00426611271687,0.0247719851778069,stand
1.25,-0.321949477695994,0.188241024537968,0.973596727515758,-1.34027289695961,-0.268164290017979,-0.468672289908334,-0.969398151859279,-0.0670552275439741,0.122991949599192,-1.12458049035548,-0.318192045176938,0.110710742841968,-0.988918570507106,0.0045450422383732,0.0078761656705454,-1.12156264892272,0.383262349308532,-0.137953666586574,-0.983627842934601,-0.071127802042071,0.223786200844355,-0.0721500448041636,-0.001285706509195,0.0244010195764623,stand
1.255,-0.328648210450814,0.205337482753671,0.976949805886155,-1.27108838985463,-0.253602184045129,-0.446693501895836,-0.964605329857013,-0.0677602265087093,0.133655773331587,-1.06047945616816,-0.302996889841513,0.106784595377951,-0.989417017785928,0.0161939478202312,0.0271097658920751,-1.05771123444916,0.364817818367897,-0.131386396192513,-0.980118739857752,-0.0673843634112251,0.226714838711609,-0.0786664763891065,0.0005832062217437,0.0245427462521948,stand
1.26,-0.334970611074454,0.22046705855235,0.97985647744912,-1.19241634227163,-0.237329299463397,-0.421986804124218,-0.959745035328537,-0.0686327766661704,0.144328861630599,-0.988701622531863,-0.285101158384217,0.10171067739869,-0.98978469859147,0.0270459144637881,0.0455717696126956,-0.986203324545645,0.343541677468751,-0.123591565165503,-0.976375042958779,-0.0635701410408371,0.229664874260871,-0.0847596399262024,0.0013064681995238,0.0252258342156004,stand
1.265,-0.340330369409708,0.232566457718659,0.982093636790339,-1.10531238493959,-0.219564742556606,-0.394963904926569,-0.955282539577398,-0.0696050472257159,0.154195022426243,-0.910240177297768,-0.264705981604634,0.0955170328802087,-0.990044952077369,0.0360937076740214,0.0613602900656308,-0.908019179040685,0.319674441772332,-0.114708446475922,-0.972478430832708,-0.059868389064729,0.232540189129965,-0.0904328107262226,0.0008782951728626,0.0264496734006765,stand
1.27,-0.34422204395117,0.240852846563482,0.983540342243031,-1.01167064206576,-0.200668504618046,-0.366288910237183,-0.951713612865138,-0.070589015871282,0.162378132003377,-0.826766531594865,-0.242240270539322,0.0883307565764768,-0.990247805386234,0.0424611620683527,0.0726666244532354,-0.824817271594693,0.293726822598972,-0.1049680086703,-0.96855042297145,-0.0564423380448644,0.23522520380943,-0.0956983734020301,-0.0006710633226115,0.0281920335888954,stand
1.275,-0.346260045515659,0.244857692866374,0.984149952405506,-0.914057997020745,-0.181109745933433,-0.336811507280902,-0.94949217773236,-0.0714910302965155,0.168082778075706,-0.740479208937102,-0.21833893058749,0.0803734537028931,-0.990453153760105,0.0454873035908855,0.0779959632664986,-0.738785483880753,0.266448560390972,-0.0946704356784186,-0.964736044443875,-0.053413619459611,0.237600044313337,-0.100574987096932,-0.0032708331682741,0.0304176926871017,stand
