Header,foot_Accel_X,foot_Accel_Y,foot_Accel_Z,foot_Gyro_X,foot_Gyro_Y,foot_Gyro_Z,shank_Accel_X,shank_Accel_Y,shank_Accel_Z,shank_Gyro_X,shank_Gyro_Y,shank_Gyro_Z,thigh_Accel_X,thigh_Accel_Y,thigh_Accel_Z,thigh_Gyro_X,thigh_Gyro_Y,thigh_Gyro_Z,trunk_Accel_X,trunk_Accel_Y,trunk_Accel_Z,trunk_Gyro_X,trunk_Gyro_Y,trunk_Gyro_Z,Label
8.13,-0.428159661923178,0.227989109983053,0.875291555790544,0.113614996699777,-0.216023439587491,0.149680768441472,-0.955782501725238,-0.0260815561702067,-0.246782779464183,-0.359189543194532,-0.0064467290990788,0.0822063461902738,-0.960733922989054,-0.215065054042091,-0.0341977085613381,-0.123080334283489,-0.116001347517022,-0.229785528528648,-0.991863840828067,-0.147933683840039,0.212178464988915,0.301887126187603,0.0720271301329224,0.0566050087164576,idle
8.135,-0.431594237142368,0.232128911014656,0.871321973160848,0.0944562347028897,-0.226847212563468,0.172115220670219,-0.958438015776832,-0.0255699567408901,-0.244121272953495,-0.426222497825342,-0.0130415745079517,0.0814735814929008,-0.957663937812742,-0.222423376076519,-0.0402385993160741,-0.0613409302109781,-0.112186862891078,-0.244191658013185,-0.996937716496303,-0.142147752841714,0.210426059085738,0.311013384675366,0.0698193909560031,0.0550556262673133,idle
8.14,-0.427131361010819,0.237735686514692,0.858823622360968,0.0618957855930593,-0.241742037532144,0.194101758124476,-0.962621112047054,-0.0207254195442369,-0.25074805709098,-0.502513001653183,-0.0108414015204817,0.0847738451671959,-0.956586925865882,-0.227569615303038,-0.0435749765647712,-0.0051171044067752,-0.107626512677085,-0.249205999045956,-1.00661568144329,-0.134905061419493,0.204294013888203,0.320603892804893,0.0567221276404432,0.0538733667348058,idle
8.145,-0.421618098526944,0.241854697616127,0.852139280283137,-0.0066187156016888,-0.245168798122503,0.214958173683517,-0.961074695520796,-0.0172170668695693,-0.259999129750539,-0.533428783646875,-0.0147950319271286,0.0868921282490672,-0.961612165026862,-0.231732702521589,-0.0464539295234277,0.0322455052211671,-0.101669646039563,-0.252579847677878,-1.01167969747637,-0.125894157324352,0.201141957177411,0.333857369467796,0.0494841700867318,0.0541039327792366,idle
8.15,-0.445528864972999,0.243713923612575,0.863957265053155,-0.048889137064329,-0.262955817166728,0.2195642552628,-0.96173713313471,-0.009277686211405,-0.279098597375474,-0.574882089052571,-0.017448905156906,0.0943404675332754,-0.967436191193355,-0.234633069731963,-0.0510385058928284,0.0357827323221783,-0.107808771938241,-0.253910511395187,-1.01441305696448,-0.123869537910492,0.200067943652955,0.344026949184265,0.0304302697433062,0.0593059981358274,idle
8.155,-0.461104923620123,0.242558331995029,0.855560786220087,-0.0800465532855079,-0.274917368469398,0.205165962562332,-0.966039093248268,0.003523573058285,-0.293350540022602,-0.609580474963356,-0.0167066566646099,0.104148258785584,-0.972377186468543,-0.229724212000864,-0.0565328942410106,0.0395703182988532,-0.114638641817661,-0.24708065076594,-1.02050501733581,-0.117099465228584,0.193283236861338,0.361920553232565,0.020602439452532,0.0578964703910589,idle
8.16,-0.469581829238827,0.262898447860678,0.846287770301533,-0.115244389555835,-0.281493179886034,0.179288431798417,-0.977763878296903,0.029085114356457,-0.304565849012035,-0.620136436643707,-0.0244044326957299,0.120203347689564,-0.982867765967161,-0.222486748419448,-0.062322339063197,0.0437179159399167,-0.115856791760162,-0.246939085689065,-1.02065325167903,-0.108803244745862,0.186050650440392,0.3846392251042,0.0195017398498774,0.0623837145372869,idle
8.165,-0.459402414999802,0.295236680993503,0.845059876281019,-0.151672931956318,-0.291357485044421,0.154930401990102,-0.990994345419151,0.0563324851058286,-0.305262223327642,-0.612812175210051,-0.0062261519014385,0.141963751106804,-0.996816710870559,-0.203671432890489,-0.0677126647522248,0.0558546787326736,-0.120266914021039,-0.231801518634819,-1.01917989181356,-0.100284205901882,0.184817963137711,0.388834923047218,0.0179461432650763,0.0676837689907712,idle
8.17,-0.437730358959252,0.356450163217396,0.861760633359964,-0.193923529204101,-0.278649236104264,0.124217107789774,-1.01723047672953,0.078886295909657,-0.295706232870705,-0.614031499409508,-0.0247670723756628,0.159651640526864,-1.01432033927405,-0.185094579602635,-0.0696784419473898,0.0773220919281589,-0.118155054748058,-0.215852604881426,-1.01680919969908,-0.0887701372444922,0.181978505912837,0.399011062442183,0.0247609570262646,0.0730891525745392,idle
8.175,-0.429315774213701,0.371937388785974,0.884968115620536,-0.214345910438231,-0.276149432608438,0.111755784893755,-1.05716028483609,0.0953300600201859,-0.290530966311143,-0.594698838747981,-0.0269160954257907,0.179301214984689,-1.03861392693836,-0.170741427349421,-0.06700524039334,0.0658444452121755,-0.118155054748058,-0.206963223808371,-1.01257674464581,-0.0782958980157598,0.181605943295041,0.396932512858458,0.0309629328548908,0.0773698421442057,idle
8.18,-0.4094797281219,0.357589551011305,0.895857251208063,-0.216726013954921,-0.248318392086077,0.102235344754033,-1.08152511322052,0.0881192336680736,-0.293883096052266,-0.569968648459507,-0.0231905333926255,0.198351203284803,-1.06095228407366,-0.162549318161775,-0.0645860910730093,0.0297240653854073,-0.119220901181816,-0.218326031750934,-1.01590199357284,-0.0625166345731236,0.176498879244513,0.388567776302513,0.0446817361174409,0.0899169541237774,idle
8.185,-0.38858643176648,0.332538277149494,0.90575060209566,-0.204744157679859,-0.241929912479279,0.095295878244072,-1.10518406790075,0.0597525878029744,-0.283176115456853,-0.573801058048886,-0.0444940888988397,0.23316323943941,-1.07724439681085,-0.161192606437935,-0.0646122863122852,-0.0180284482816667,-0.120296597571312,-0.261918281012527,-1.01973640105089,-0.053904449659559,0.17756196819123,0.378049650185472,0.0460496716346028,0.0929205366793118,idle
8.19,-0.391759429857057,0.288015135051691,0.92483231454391,-0.169265843489823,-0.210392764364547,0.0937186279389278,-1.10288380982612,0.0116548293213221,-0.281454852584595,-0.552866155213347,-0.0631328985730551,0.248095906078482,-1.09272159079944,-0.173122611640667,-0.0678445833718869,-0.0898928747790802,-0.126265073824637,-0.334851096691464,-1.02071689915253,-0.0407253853097362,0.177710377929332,0.342208499596869,0.0531746735665922,0.0959432878755774,idle
8.195,-0.398268059033847,0.242264154230876,0.924181957431461,-0.143529367856093,-0.185932785153596,0.0920975969118535,-1.08951934438778,-0.0494067541111324,-0.285173777996836,-0.506805635815195,-0.0798391019434854,0.271717784363253,-1.09669219145578,-0.193480812243009,-0.0785379039399724,-0.188984946123194,-0.128491610394731,-0.424923998052622,-1.02474454403334,-0.0238019606127187,0.169844758402457,0.311440748085093,0.0632484257082763,0.0975230485200882,idle
8.2,-0.411097285747382,0.188703174136225,0.924193939218553,-0.113029373199264,-0.166998157072371,0.0930083214670065,-1.08260504230933,-0.10071708436714,-0.303303203938985,-0.421360556620454,-0.102520562518376,0.290341439622231,-1.0992212935923,-0.211039492493594,-0.0882911986235606,-0.26887310236,-0.126083778615522,-0.495954843530469,-1.02962794037313,-0.0092886311553592,0.170964115054997,0.285253933107581,0.0715298492921879,0.0996428724531826,idle
8.205,-0.412173858847057,0.164834024579573,0.917478706570008,-0.0749213505903828,-0.13808997550999,0.0886714110009511,-1.06454252811214,-0.141741262816468,-0.294638914510281,-0.292784337701396,-0.108196719089766,0.313820072147077,-1.08939206607672,-0.230755533909813,-0.10417857558307,-0.362308748895511,-0.126706913113594,-0.580200758788861,-1.03519123814758,0.0070396427014596,0.157678421780139,0.246115939228756,0.0823182030463523,0.105245742662935,idle
8.21,-0.411693876378325,0.157839925162156,0.913281278973232,-0.0448800377339048,-0.11880011549781,0.102383114435042,-1.0442548689988,-0.175923825805573,-0.270992847739733,-0.115642452668325,-0.114927752433535,0.325060633491828,-1.06701609507264,-0.242707489133604,-0.115542186524229,-0.4217094554896,-0.126251220539852,-0.624199160362897,-1.03476937439474,0.0208705795469045,0.149269537849366,0.206617064505531,0.072500541806221,0.111636578981775,idle
8.215,-0.405133962975666,0.168369614453946,0.911474210833293,-0.0160647693300578,-0.0985020349011373,0.12223956596424,-1.03753332151872,-0.177588663697173,-0.266265713314458,0.028274573776439,-0.121908970214129,0.329477578401566,-1.0370841112639,-0.253388267433479,-0.118766445955901,-0.44927821409779,-0.123954532551456,-0.673966852015449,-1.03488236053303,0.0278580156736065,0.135128253695232,0.166405580527164,0.0747297460868822,0.115584020189584,idle
8.22,-0.393814535629402,0.170172584135153,0.908022956827361,0.0209240436594868,-0.0715972557679392,0.139759977098926,-1.03631333459302,-0.160554349260433,-0.258200308640643,0.162763251553602,-0.130923056057271,0.339351617647725,-1.00958487560506,-0.265697053210928,-0.118243869811819,-0.447848398174353,-0.117667110833285,-0.698082300706295,-1.02696132560197,0.0441315739048779,0.12211731313956,0.119010352978451,0.075103323696951,0.118875970203142,idle
8.225,-0.388874353036931,0.166604860172825,0.904093796119442,0.0343272531790531,-0.0565147831387703,0.149718914154518,-1.02245209232395,-0.138352518399768,-0.256526488386373,0.214758120271999,-0.140090243299852,0.35110230656202,-0.982599765529911,-0.267009698724244,-0.115134336859763,-0.460915614250174,-0.107227661517992,-0.714934684997541,-1.02157821495876,0.0618217561525769,0.113663060060991,0.0832085550821039,0.0891793836084061,0.119849757780168,idle
8.23,-0.391764984201012,0.171815700704217,0.905456792094607,0.0772552827328097,-0.0304308856188868,0.167089991881577,-1.01001490012053,-0.0780079666335773,-0.24393156643099,0.264084614779475,-0.1642784255405,0.353411305095324,-0.960003457815531,-0.270373378700162,-0.111225291659649,-0.464999804585311,-0.0869305752999647,-0.726351601360009,-1.01054168002229,0.0744207600608804,0.106663636499334,0.0437973198770233,0.0936262579666884,0.138563449355413,idle
8.235,-0.395516815724638,0.17397815282045,0.896880837446582,0.0913618804059813,-0.0181796289879006,0.173821123467142,-0.991419607047248,-0.0285597979950353,-0.213349796720906,0.285955122247581,-0.160761014004861,0.361594013722784,-0.948884503066811,-0.273108051540088,-0.112897832090221,-0.46651503443718,-0.0662725858172051,-0.736998734813378,-1.00177993901726,0.0804563842645001,0.103878240058859,0.0116038408240523,0.113032776143233,0.154922671823043,idle
8.24,-0.393473370151186,0.192003757915629,0.887884494777296,0.10675477185912,-0.0055263145164179,0.18394238219703,-0.984702657167607,0.0146026424969916,-0.221765561111255,0.196375771854971,-0.143991824304212,0.357014210146476,-0.943228004460859,-0.271126622129037,-0.112632605236234,-0.468670620263477,-0.0433467190240751,-0.729728114707799,-0.986392461314293,0.0868814311098382,0.098447406989234,-0.0392001311084509,0.138497802364292,0.165773218705225,idle
8.245,-0.382746079328581,0.198900796648209,0.891744334132458,0.129341357963371,0.0025857313967842,0.181840583297431,-0.966947721174661,0.0401486040011449,-0.25454237355045,0.0712242129196181,-0.154694967806042,0.363003609182874,-0.938330977115354,-0.270872668876418,-0.0987195918563158,-0.450206703777717,-0.030942668217581,-0.720302619964173,-0.987603939713773,0.0929625508101515,0.105509531062989,-0.0885886543247085,0.170079025621452,0.181136230456676,idle
8.25,-0.378488031263452,0.203810722357695,0.891237137713377,0.152252659002423,0.0333640492318171,0.170286737516387,-0.964199394271989,0.0886274171144086,-0.218124750006431,-0.0023139506955801,-0.172626826414582,0.365161684173016,-0.932393880251376,-0.270439633367508,-0.0784804573754101,-0.413777846478416,-0.0268279593071567,-0.714377459206636,-0.98149697489261,0.0957423255300049,0.109972507998619,-0.136718207282336,0.202824956245247,0.188159442705479,idle
8.255,-0.38651218491716,0.226432827269762,0.887350268791715,0.17025847533774,0.0498141026146105,0.153216789001575,-0.96514487573588,0.129356215797454,-0.195926403852112,-0.049606783506905,-0.162741640531871,0.35822986992583,-0.928397549105718,-0.264239200980814,-0.0423622957551964,-0.382693642208573,-0.0358878401195083,-0.70531258224114,-0.9838612998364,0.103934910852103,0.114325006727237,-0.190730101775983,0.245197416231934,0.192815214395523,idle
8.26,-0.391105092849271,0.260121688368206,0.881105276437398,0.176324753295133,0.0431493007487311,0.139548324889197,-0.968373135804928,0.143177421584954,-0.234400925305444,-0.127488026970291,-0.145365146807065,0.338656489562926,-0.93037879996104,-0.261640884566101,-0.0007231229456984,-0.363837549794555,-0.0531687383540036,-0.659448924084245,-0.991027950564496,0.104967718398681,0.112836767990293,-0.235097075249557,0.272744801558565,0.193866432617886,idle
8.265,-0.390656358635548,0.283374177708863,0.874868927956964,0.165502205746429,0.0719218316627071,0.129493783626709,-0.966908249095985,0.134991940071093,-0.259978521690315,-0.225281320878844,-0.128613671580168,0.313290878314039,-0.930435388196599,-0.263882062597709,0.0434439427757871,-0.346169653663263,-0.0747455993492611,-0.620194339669622,-0.96839111762749,0.111465049927986,0.114574902422662,-0.262487872688805,0.323262343138644,0.202588766813278,idle
8.27,-0.387623423688677,0.301416338771918,0.873925499666439,0.165642495286402,0.0503682643175125,0.124933617759916,-0.974966958499618,0.132486833681768,-0.254864232953828,-0.299596478080558,-0.142071701782867,0.28987850308738,-0.936429162735337,-0.267768503150113,0.0937368236617581,-0.301572595631285,-0.100085581672842,-0.560331201408908,-0.964408654687206,0.11809482662312,0.109473733269161,-0.272145688533783,0.379358050005485,0.208918677872281,idle
8.275,-0.386071738632102,0.302397224024722,0.876970759692945,0.15620005463526,0.0543681907726773,0.118932639960915,-0.989943466819808,0.142776850001547,-0.250856327643116,-0.344240229149452,-0.159919739208843,0.268710605848327,-0.949339873660642,-0.26394395667769,0.127875913440504,-0.24684386849403,-0.121394022460699,-0.517016500420469,-0.970377586564831,0.118130345836558,0.112434183549041,-0.270645675688038,0.440910013184107,0.223442503116264,idle
8.28,-0.381742093575267,0.300259956781935,0.875834528560604,0.149107136326256,0.0587004787326249,0.113220036359113,-1.00337596215451,0.131355065443509,-0.250610783673475,-0.348916857109254,-0.17638807533328,0.25800615240697,-0.958583172849252,-0.266716149319239,0.149988232031813,-0.190703719572727,-0.136695250072356,-0.483306035813618,-0.988650497096928,0.121057647473754,0.120198522488952,-0.25281918047965,0.479826406502263,0.224745773625664,idle
8.285,-0.38638832555081,0.294585089100846,0.868588886832872,0.150303742200008,0.0643947351845422,0.102661331757391,-1.00557661563298,0.11109310231878,-0.252700183209504,-0.342937059442053,-0.177806885354208,0.268461223117313,-0.972596982450077,-0.27638039572115,0.17870780643027,-0.155126591868337,-0.140876589525706,-0.452300485309153,-0.988158873118746,0.124673272074238,0.12169808470086,-0.239082615474794,0.510142433081527,0.229915137949331,idle
8.29,-0.3918823307224,0.303119523195586,0.864061909345779,0.145749176914604,0.0650098073019547,0.0885460787863303,-0.998814058613697,0.0862360557263806,-0.265892745552168,-0.238100255245449,-0.197039643523783,0.279067607007327,-0.98184023814983,-0.288312058906083,0.189655454263977,-0.116049084423016,-0.138634552187607,-0.435370266437531,-0.995433507366569,0.124020126307948,0.124055767052025,-0.197852829523424,0.53048228593168,0.241439211808707,idle
8.295,-0.395804004038301,0.313191843638894,0.859486813343854,0.146730907839782,0.0605711432590468,0.0726636057743878,-0.98602204474774,0.0664379709310875,-0.268704742838861,-0.079793008501845,-0.200180826937212,0.289713990832711,-0.989642986078491,-0.299952113485225,0.193534932304662,-0.069894994335905,-0.130303326898478,-0.428556423931157,-1.00132049088139,0.119759094446391,0.124157295606845,-0.15274960045838,0.540348492798906,0.26669102504559,idle
8.3,-0.396819912117844,0.304396608421997,0.852296014522909,0.137358102152719,0.056814796886551,0.0521646280541908,-0.971883187605359,0.0347506243353241,-0.271099427079196,0.0975677135906205,-0.192539659272752,0.299403104127371,-0.990541432696915,-0.31711865714583,0.18840875496753,-0.0117588657109674,-0.115783901526872,-0.40317594285566,-0.999740246108756,0.110075987993257,0.124534374160587,-0.123407973423345,0.544969795714822,0.281844415478536,idle
8.305,-0.400600649990506,0.281132674868079,0.856993113538515,0.133979044267218,0.0442597940564156,0.0469581944322349,-0.96822274517544,0.0188966518455315,-0.271037290801931,0.250700497800304,-0.214831264304595,0.303705247206816,-0.98377514051017,-0.33585844156301,0.169519321817215,0.0738354436476067,-0.0806344390130595,-0.38628751202313,-0.993356169813475,0.107691288433473,0.133102940654151,-0.114796078004085,0.543687084668386,0.291669773872542,idle
8.31,-0.399547765595796,0.26009941641728,0.864435050553723,0.138506950494176,0.0532531251194798,0.0315945119487283,-0.958551685024313,0.0206082668581864,-0.247783869421943,0.41915369628228,-0.23000150874815,0.318236114247479,-0.977742063368481,-0.347608673996351,0.154281842913963,0.155735485992408,-0.0337399096279667,-0.355000399260443,-0.975206531004558,0.101768821696282,0.135513579314902,-0.0982058686105253,0.529102479035322,0.315764151202895,idle
8.315,-0.403818552226555,0.242672579240933,0.871654813522991,0.147516382641849,0.0520123632714789,0.020143155851247,-0.956634444113311,0.0313668458045058,-0.228366280994879,0.541399791455346,-0.229407770572349,0.329020278429341,-0.970816219318001,-0.35014573997014,0.129926207913092,0.255360211690407,0.0254754981525862,-0.29493371333705,-0.96075600937227,0.0967266304436592,0.136104586381745,-0.109303093428218,0.516373927144342,0.340543800478213,idle
8.32,-0.398999369649774,0.239866083201826,0.876161666124714,0.151887708932245,0.0498043895514904,0.0151579512993484,-0.967349849089347,0.0411828814427678,-0.23511498632452,0.597282444851643,-0.216594246712767,0.339846660888124,-0.96665350116439,-0.344254380002798,0.107443464345577,0.347819769959676,0.0824795557588409,-0.217358003956903,-0.944092405564822,0.0915983289735662,0.146807799735584,-0.137513554131928,0.48543504844294,0.36663671147993,idle
8.325,-0.395905419949994,0.255512431965232,0.871613847971334,0.14449361394053,0.0462051895706523,0.0138234822079539,-0.971781986179264,0.0420794197847251,-0.242673216488274,0.576636638820969,-0.214170902223929,0.338608268157437,-0.967877962266676,-0.33182364096981,0.0740142224747968,0.465123785421496,0.128633724273432,-0.153778663699404,-0.934036513160624,0.0864638321777306,0.160857891488077,-0.167454474228452,0.46081216071972,0.385677977270123,idle
8.33,-0.396673320912615,0.250230250788494,0.871814240542791,0.141342159190087,0.0485973166772963,0.016816124280615,-0.979067465187657,0.0629733653065594,-0.227470977849229,0.530646844440549,-0.2163645557951,0.330232589903185,-0.971305891773414,-0.305989059345232,0.0545978324912701,0.581252019373549,0.180248315440803,-0.0899292082536256,-0.926817273090058,0.0761029726858381,0.172096984152382,-0.229322256834175,0.439980149106674,0.399730561365435,idle
8.335,-0.397083421311599,0.245057328966728,0.871899319734056,0.138310971807726,0.0482231603282491,0.0187756276894927,-0.98885342330556,0.0913545140525827,-0.211524440173946,0.45273364870436,-0.198085693297732,0.323482744635781,-0.973347354720319,-0.276216366165207,0.0342068590635784,0.663435855319669,0.211186328429537,-0.0386644626222551,-0.922640340710169,0.0646208553559211,0.189818379204847,-0.291729545545715,0.427998952863095,0.39462738181395,idle
8.34,-0.392774535351814,0.235747898150191,0.874841339864112,0.137452930212021,0.0503682643175125,0.0263474484977436,-0.984344596520166,0.107782554137163,-0.208042834533094,0.377489975366531,-0.194692896326752,0.313390262947089,-0.976541612857656,-0.247537997808762,0.0201696657233704,0.744383392293768,0.23756424541433,0.0056910903198704,-0.919751377154231,0.0518025560840045,0.205107329355115,-0.358547633047055,0.420984227406133,0.385373076856333,idle
8.345,-0.394910873520346,0.249418981191246,0.8751824172686,0.128716637159168,0.050183835956028,0.0304432267146474,-0.979919353648675,0.117784491033624,-0.219281662837881,0.234796564111018,-0.172355265699475,0.303885367659468,-0.975386272156747,-0.213032617570061,0.0153141914702763,0.806049082100815,0.251514234765717,0.0256390890367594,-0.918351246254774,0.0442857205819511,0.228166305416223,-0.421681457639095,0.427451815757088,0.375666209192508,idle
8.35,-0.400915123330726,0.267252674100778,0.866428395052215,0.120862815271848,0.0496010075820266,0.0345922894775867,-0.976766318109645,0.132426298311676,-0.212772452449607,0.192818986490439,-0.178924508052595,0.277898875397923,-0.978351422613807,-0.188431864401095,0.0146118443909875,0.857059076866476,0.253191252395633,0.0285022461816744,-0.927705815351278,0.0319252829878094,0.23768045043964,-0.475612106437324,0.441234162521827,0.364125347591364,idle
8.355,-0.403716778159212,0.274496739234341,0.867522828956593,0.11014539324777,0.049576825803498,0.0385494844609792,-0.972159035115014,0.140705801343919,-0.211376307085865,0.10613432721806,-0.165637452141257,0.25449715664199,-0.975920730139449,-0.162360926524176,0.0174372486643515,0.863741623525164,0.234018755886654,0.026127736453617,-0.94593345247137,0.0228856785305722,0.252311087857356,-0.510897026250504,0.440728483245902,0.338422779945269,idle
8.36,-0.397241848188183,0.280730226201562,0.870990820527435,0.105033649299426,0.0458213680919365,0.046242767086235,-0.968572404217372,0.137498701985765,-0.215768196118499,0.0256343128688011,-0.15442469095148,0.235327434154094,-0.973340260414342,-0.143034318526353,0.0240691231701812,0.858076838613988,0.210432004609145,0.0144882507302511,-0.958518292831746,0.0126624251926708,0.263412329164977,-0.513526427615601,0.441629019347061,0.314677381590821,idle
8.365,-0.393681347238678,0.272173403217298,0.864291887652632,0.0929587901265721,0.0420743066586306,0.0470019921590741,-0.970726989695055,0.137965024456622,-0.217475824110393,-0.0332885334117868,-0.151748200420106,0.211777096253339,-0.97088125982428,-0.131036986778068,0.0347252132974208,0.827753336815214,0.182412645987529,-0.007147069309844,-0.969127540697128,0.0082305688253963,0.273235740244611,-0.490371182137413,0.433630891811928,0.285903201842469,idle
8.37,-0.395013444143134,0.285650309895527,0.860615324096489,0.0748717608699536,0.0403621941672181,0.0470501938103862,-0.970260128530592,0.140557309509984,-0.217998123014192,-0.073887060784367,-0.138024634911333,0.192737698298036,-0.972905090546962,-0.121911890907827,0.0471460831577609,0.762717260612321,0.13635919491094,-0.0358168684501981,-0.983457360924557,0.0032201664390784,0.294014215868023,-0.422100452923163,0.421127287447034,0.252020253061514,idle
8.375,-0.398541172399576,0.298148707569227,0.858617265543613,0.0656575113062412,0.037582208657769,0.04716739459954,-0.973203009590024,0.151094390760726,-0.222334766802913,-0.0996991288616745,-0.140509359827607,0.178918457504099,-0.981766677080023,-0.115331833888547,0.0630539008533774,0.682285727521386,0.100675135359502,-0.0645775680874396,-0.991791046952172,0.0051421499860247,0.303619538279746,-0.337783914288099,0.416002971916605,0.220311254172695,idle
8.38,-0.395673367068317,0.305515101974869,0.859839545924734,0.0556369011084089,0.0210851044891883,0.0524598168432202,-0.97987913901766,0.162842241811205,-0.223302513435151,-0.0941219351404438,-0.131847626198425,0.158868964353161,-0.991450875338663,-0.109032284306553,0.0736420320092092,0.592677765320382,0.0593834261117234,-0.103096374519924,-1.00837250344125,0.0033271548142803,0.320218827307458,-0.203479979249097,0.391208752027171,0.181497514040915,idle
8.385,-0.390854949308805,0.291276866272175,0.854921126603475,0.057726992948635,0.0318506601420169,0.0460404899585743,-0.980308369538235,0.15249322724681,-0.216995070535347,-0.0635008760442455,-0.126986139880438,0.143958937451414,-0.99315018247676,-0.111000242368891,0.0809741010489674,0.446273669161438,0.0090869275151635,-0.139221049367551,-1.02408500823635,0.0029470414793086,0.332730956633463,-0.0734710914428416,0.369680514181559,0.149510025923132,idle
8.39,-0.40458838970804,0.284320788875056,0.864423147614663,0.0485280988878535,0.0284140906094306,0.0375897454886474,-0.989017927725583,0.136154921106154,-0.219486452847325,-0.0524709038142024,-0.122238724784082,0.141270985356764,-0.991441935002594,-0.108525886516152,0.0784033265627729,0.343835485471757,-0.0335534558265605,-0.180176884475695,-1.03183064222421,0.0066177616778719,0.332617049627278,0.0493505595420651,0.345567497157431,0.117669945080665,idle
8.395,-0.403714244956799,0.280501338891861,0.863308524908052,0.0431161756323688,0.0239264102778219,0.029354661938359,-0.985475980853726,0.123782985698653,-0.216026974964718,-0.0333306815331098,-0.115289738978649,0.119819464426353,-0.991763703137848,-0.109320569478701,0.0747852257778983,0.22580241714365,-0.0709548176970676,-0.225863000339995,-1.03846209960613,0.0136379547702089,0.33437735487761,0.184805011320148,0.31947608251715,0.0949254934514083,idle
8.4,-0.399885937972241,0.288591946958419,0.861153372005526,0.0331926212967422,0.021277719671647,0.0262705474447412,-0.992196367194762,0.114061225574611,-0.204212738519821,0.0060390862487792,-0.108591040727502,0.10314292678167,-0.998291469627372,-0.112694680779054,0.0669284482875974,0.113898787530541,-0.0977011048841919,-0.268014305251599,-1.04564818997602,0.0185111938193722,0.323373045281611,0.283654107236558,0.287691499845649,0.079811394167699,idle
8.405,-0.390439705764674,0.27879516738491,0.862108820432479,0.0217305306276634,0.0288340734552015,0.0193579150073729,-0.991589048995352,0.109518033521108,-0.19745612631587,0.017975637439538,-0.0868784010563912,0.0999233726988207,-1.00054539290267,-0.110238035179641,0.0643496921497782,0.0086718290746833,-0.11432906778736,-0.289388051073419,-1.05156164747436,0.0262142169942128,0.310868420385185,0.355429365796838,0.260681792540691,0.0654770706354483,idle
8.41,-0.390035937291139,0.272454822453719,0.86496359246012,0.0089086110621579,0.0271928293270003,0.0147787823315764,-0.982771886144475,0.105786948374461,-0.194094344174046,0.0741752781649008,-0.0875943730116772,0.0839464093449011,-1.0010724032934,-0.103371397915707,0.0601579073659112,-0.0946670079169612,-0.124263525009155,-0.321729097639117,-1.06352419577159,0.0312070440123899,0.28576752722249,0.41599905734869,0.237764400768493,0.0458794011919348,idle
8.415,-0.39418335731778,0.259602409463366,0.864068845625179,0.0004330478195898,0.0260972283471271,0.0086651826847261,-0.972854170980739,0.103954350434253,-0.182356518469007,0.100603808977952,-0.0785070702143922,0.0802518874406815,-0.996627497864557,-0.0952696788251724,0.05635389667851,-0.173602647853776,-0.124263525009155,-0.339675041559778,-1.07428961670336,0.0461653074806901,0.261142607908634,0.460498423967848,0.214733266435235,0.0388817079365253,idle
8.42,-0.391912515415841,0.261053658916413,0.859885882313489,-0.0207762632199783,0.0279245664150548,-0.0012654510851706,-0.969366025969319,0.0994243696375153,-0.178886549268651,0.11639593812543,-0.0654881187005388,0.0736786395297455,-0.990435888304416,-0.0939213760986752,0.0497706725020459,-0.206679434230591,-0.121016613815891,-0.35931361251788,-1.06877133887198,0.0602346373806611,0.238427216518608,0.499997539525123,0.20535174521607,0.0517256413860206,idle
8.425,-0.391526282588607,0.261418036955635,0.866440472086006,-0.0190616421000586,0.0162173378777859,0.0018572539374004,-0.959711528016538,0.10080527047494,-0.169433854712456,0.105651152984833,-0.031910228504208,0.0751381754800108,-0.986188739015866,-0.0923880685905814,0.0397666709304737,-0.288086457430904,-0.114614821147743,-0.367268755776481,-1.0742805751945,0.0744446148165807,0.227714321267823,0.513014282750357,0.203514816729423,0.0646339084344797,idle
8.43,-0.390082519594966,0.261259289944932,0.865523789640143,-0.030713474082189,0.0130252356565443,-0.0047666870563271,-0.960870115877907,0.102770380073977,-0.162125520771621,0.117020266643651,-0.0331061688344445,0.066331769083198,-0.985175279423773,-0.0939048826306449,0.0342494822845459,-0.324133433364793,-0.105311494338055,-0.365702159737626,-1.06189499830686,0.0906926065343378,0.203514858667358,0.493637226243501,0.206553455774644,0.0787518525253001,idle
8.435,-0.395818227496685,0.263672521839818,0.871890818536533,-0.0444218602811322,0.0221641616968015,-0.0069453250616788,-0.964117282526616,0.117947062124579,-0.155392300495044,0.124774357341596,-0.0301452968269587,0.0624547213429556,-0.989546157763348,-0.0964668659971296,0.0309392502120354,-0.371746196526813,-0.096857995009078,-0.349568722585074,-1.04955979808586,0.107062489973038,0.190304063418991,0.460142651816205,0.208108633756638,0.102458558128943,idle
8.44,-0.392086387336494,0.260593248544418,0.867717737464611,-0.0548888396257898,0.035786353636904,-0.0113747954966483,-0.967595741884182,0.141748442813849,-0.144206838641239,0.141412906758029,-0.0126270950120347,0.0552303391740646,-0.994148895539122,-0.103651517131311,0.0311287561606928,-0.416255596180611,-0.0926469730227103,-0.33729802898797,-1.02439054497722,0.132214371172211,0.17972634161296,0.402874184914539,0.205994670651708,0.14088676661247,idle
8.445,-0.387126149914933,0.262068662340056,0.864831100372811,-0.0741697018865967,0.0320428460836411,-0.0181343533490685,-0.968546541712347,0.147701948995828,-0.143042614857262,0.146628067158725,0.0090512200556183,0.0524142924756769,-0.994510667526128,-0.102834478388878,0.0369654077785755,-0.466167007045499,-0.0905050879438935,-0.329556220561453,-1.01286726408416,0.15183239260439,0.17218559790428,0.311075184927804,0.208247930887001,0.176965165431739,idle
8.45,-0.386595011335354,0.268988262446991,0.863644003652969,-0.096923688799315,0.0295831024384005,-0.0226059137752357,-0.965729767106979,0.14513060309744,-0.152675044647176,0.113391315274266,0.0312643690012298,0.0361084154584217,-0.992448841583927,-0.105985264022551,0.0403503449560865,-0.494965302882806,-0.0923421687302979,-0.314083416325585,-0.999773645915542,0.167443085230633,0.166436153699503,0.213878485706356,0.214625359503154,0.194208029581059,idle
8.455,-0.390696300078031,0.271907597407498,0.862866712274886,-0.118041517464728,0.0156381941327746,-0.0277141332626343,-0.961924682738461,0.145745282704225,-0.161078707215573,0.0699678530390754,0.0485980760639819,0.020833783815574,-0.993174916811088,-0.111577097951218,0.0471581006260093,-0.528424493346548,-0.0847569073866131,-0.288234491366009,-0.984708402597837,0.186217043915226,0.171905663449457,0.104303014597735,0.229155919994118,0.217068163406976,idle
8.46,-0.394416441598811,0.270287196550486,0.861878991688202,-0.124986164560209,0.0033978918998759,-0.0354776626880756,-0.954804712189017,0.141364309237713,-0.167781045527694,0.0309796963506777,0.0615748157057391,0.0067317882862166,-0.993049807943773,-0.125144129051013,0.0525515414278924,-0.554250486707173,-0.0793574876278598,-0.271924817585741,-0.979249641640293,0.20166001850378,0.174453740607349,0.0032874105674196,0.250610848719287,0.22654610571684,idle
8.465,-0.399245159580158,0.275290503450009,0.860991867401822,-0.124961544546498,-0.0237387938104347,-0.0439848965028055,-0.946820592541352,0.148751264102896,-0.161403666946666,0.0323678682413076,0.0883523335390041,-0.0077101159840822,-0.987688127461224,-0.134154284778605,0.0542618546365409,-0.57704710319496,-0.0726313241357009,-0.25018989531095,-0.970329556819144,0.210221308746402,0.177444338592156,-0.0703358573319536,0.276102464766671,0.229607094482684,idle
8.47,-0.394081597049419,0.279967978754099,0.85717472928482,-0.134589473705151,-0.0443730911518267,-0.0540240816977193,-0.951905973017103,0.148866363305708,-0.164992148872919,0.0456740043928765,0.115937390164685,-0.0081965103700811,-0.981857631618857,-0.14371152257784,0.0551026846951251,-0.56725214205736,-0.0700464492194583,-0.224042603157313,-0.960958636769064,0.207296058862999,0.186764917519016,-0.146315955265475,0.309105246399411,0.226161165603428,idle
8.475,-0.40125670086177,0.287700122873339,0.854085353851319,-0.143484137573425,-0.0543814233369161,-0.071961907872759,-0.951624550355564,0.139314280605342,-0.175122590277715,0.0438177923125667,0.137200630595495,-0.016766833457759,-0.972291446785713,-0.155827127470344,0.0578988298763145,-0.556605485089284,-0.0685189826163196,-0.182050952350557,-0.943701442643014,0.206819627315481,0.192567235764404,-0.177675584176069,0.335057217380175,0.212416157168149,idle
8.48,-0.399168993020036,0.284525109241857,0.85493118550639,-0.146975854005256,-0.0708970187737082,-0.0842296092344855,-0.950690029141126,0.129685186116,-0.182812479334399,0.0370243202792566,0.152103139019529,-0.0255326637658082,-0.965976872170131,-0.169058627730121,0.0645590834247381,-0.549264828355999,-0.0723548179482543,-0.14988870595882,-0.930166679209993,0.198448282560655,0.203064818571668,-0.186278152003184,0.376006494510895,0.194035976531085,idle
8.485,-0.399366522147397,0.277412792123366,0.8556194233597,-0.152278264201569,-0.0858086021570917,-0.095771144233968,-0.950309272103486,0.129541673901307,-0.182406601855803,0.03666290297519,0.167816423217168,-0.031452641320886,-0.956349002226439,-0.175457913090248,0.0667620049600183,-0.509416883291663,-0.0719145716821312,-0.116840175652355,-0.915062129214162,0.185459430884003,0.214978745976299,-0.169432980001376,0.378615445761624,0.184610344523631,idle
8.49,-0.398098411685773,0.267077962866635,0.855334081768833,-0.154260678997131,-0.0993582785282621,-0.112350960001027,-0.950408784171052,0.120938839575505,-0.182582407246511,0.0389013466149721,0.195297156835198,-0.0322801292092579,-0.952690431397442,-0.171638915849702,0.065067152969492,-0.459271501500479,-0.0630842133527888,-0.110399536788464,-0.903654625351261,0.157950275010438,0.224530749679638,-0.121421930450152,0.385319399665321,0.152174059269476,idle
8.495,-0.396201412978947,0.269687224693007,0.854106636238867,-0.151821162789342,-0.122860860284706,-0.127641587583312,-0.95534768700313,0.114542727493539,-0.178661648955054,0.0297679528423168,0.21289822027969,-0.0331033825173849,-0.952635917198287,-0.168840174482691,0.0664927013772585,-0.402032376697686,-0.0614803735658562,-0.101459992759054,-0.893859555919405,0.14018618666091,0.227602054205284,-0.076091386302435,0.376666130153275,0.12925075146351,idle
8.5,-0.398157402732971,0.267613240992428,0.857634286775334,-0.148537028502569,-0.1278856956252,-0.140424275067676,-0.953130603477519,0.0984927694571685,-0.188172725738499,0.0085236189065648,0.218953081847166,-0.0412810328725392,-0.957043399780644,-0.162289415925815,0.0681577695656352,-0.337473140494765,-0.0576811398553779,-0.0882562599682687,-0.893180577920891,0.113428995826977,0.237683615609112,-0.0222205956296254,0.359852267124305,0.100801268273597,idle
8.505,-0.396380146813845,0.264728777983645,0.855487900363309,-0.135706877454161,-0.131281671145751,-0.14190555266507,-0.959450017094126,0.0898455774611081,-0.194896919323409,-0.0064437606946255,0.229258800695355,-0.0454046300829689,-0.963483307443914,-0.157098296119563,0.0711878247150857,-0.293255661861674,-0.0534052476286888,-0.0874794779386596,-0.89420285170016,0.0973225826921232,0.243173445230972,0.0065597004629231,0.337095014879351,0.0770289420636457,idle
8.51,-0.39687534706151,0.261499798494553,0.853045775162345,-0.119023870397543,-0.125763200160737,-0.139563378925381,-0.969219112016166,0.0639787346256233,-0.184455772562799,-0.0338054489694808,0.248353263517436,-0.0496312599665871,-0.96979402524165,-0.153916034396859,0.0713645975138656,-0.2314671635202,-0.0529530921680816,-0.0801745611634032,-0.900132026608934,0.0799869533799633,0.249027770391093,0.0285985473542594,0.316659107979303,0.0551288670306289,idle
8.515,-0.396416976007342,0.245363928232825,0.867280909565065,-0.106531059377835,-0.095443164762152,-0.121310188489556,-0.974704120295368,0.0367234651613219,-0.203038972677663,-0.0773422161567972,0.2512929880178,-0.0655311136523037,-0.977000917250789,-0.152248402281794,0.0679870180296756,-0.168587395905491,-0.0440217230104367,-0.0838293732789931,-0.906659670162075,0.0614051644560328,0.252325152757956,0.0398693438700097,0.288020869204058,0.0347368868945718,idle
8.52,-0.400003590283171,0.216775676693346,0.874975946567467,-0.0835363888886455,-0.0926386918473513,-0.11014416536449,-0.976119736383446,0.0230085521006391,-0.228119496407427,-0.0318027628049469,0.266134878660508,-0.0722008783555509,-0.977349551265484,-0.158052668367143,0.0575182272042792,-0.123613509869781,-0.0248927506838854,-0.0957117460342337,-0.910802485146058,0.0480506708916419,0.255652761299686,0.0453289348135849,0.269299289981158,0.0162733012821136,idle
8.525,-0.399858523994233,0.223026608242671,0.877076413781557,-0.0623198972972906,-0.0891514823938181,-0.103120695941024,-0.988608301662163,0.0020611863505532,-0.234472877884441,-0.0016156664767268,0.271978498222563,-0.0714208550650986,-0.983462999106877,-0.169807662712682,0.0494055669929245,-0.0901166533977772,0.0018581236680695,-0.125517647918558,-0.922338965787065,0.0381461150593583,0.25634816742228,0.0476163907352945,0.252923597870261,-0.0044262751300197,idle
8.53,-0.398358332493358,0.242671389911507,0.870657052775801,-0.057745576342087,-0.0790370893081286,-0.0909225034417251,-0.994472894947659,-0.0038297810878072,-0.228323955779229,0.0596680876834311,0.273572219224443,-0.0753664860599419,-0.97909680976058,-0.175551414191722,0.0418536980520451,-0.0752230431618894,0.0230345849738154,-0.153848941305405,-0.936398132748242,0.0250918277131309,0.257473492810365,0.0442164476705465,0.241889942455354,-0.0203560170549461,idle
8.535,-0.393301043331665,0.240697616856774,0.874165606432944,-0.0507959173927184,-0.0789695156049589,-0.0771689703579539,-0.992673468121075,-0.0039318553969013,-0.224932642680137,0.0912797318148058,0.290836865319217,-0.0688324075966524,-0.96741816269248,-0.185268122141747,0.0304880895778496,-0.0672748715221299,0.0433403775432932,-0.188083762801022,-0.945121108377302,0.023917440052403,0.257728266941608,0.043273923337043,0.232429675521966,-0.0362541410751083,idle
8.54,-0.387368189610238,0.232195048314215,0.876325642385576,-0.0305259824117244,-0.0750445245633633,-0.0729168355464935,-0.982939353797733,0.0130196972545353,-0.229733861876361,0.110112212248019,0.306409052539207,-0.0550211841354653,-0.946096735894047,-0.200561260604538,0.0221457913417607,-0.0565845510789817,0.0646441369201418,-0.227574767947212,-0.965532040693596,0.0176876779658812,0.254735407531404,0.0442731939256191,0.213883491884539,-0.04907129575246,idle
8.545,-0.394192039174314,0.235754125541915,0.873595110962034,-0.0216893235329604,-0.0637641412582649,-0.0689305860930255,-0.986952974399002,0.0404600312257745,-0.228602634188967,0.115060819971639,0.295184019485197,-0.0614646747708321,-0.933959011027732,-0.205982137896444,0.0195167159642571,-0.0855603905827179,0.0695400373694248,-0.2648378122292,-0.972098915417706,0.0278342450948268,0.253243681227106,0.0567486619417573,0.204760439613286,-0.0612972415983677,idle
8.55,-0.397010721547555,0.239151031971119,0.871059810235216,-0.0098784046304879,-0.0480450494538572,-0.05724397285525,-0.98257617026799,0.0547437081993595,-0.241825829525767,0.0865172121832442,0.306876328978491,-0.0605039256420183,-0.921774794847773,-0.216997478765687,0.0177391251641488,-0.12223375234297,0.0789677386288102,-0.298752052463125,-0.987039735036402,0.0369117692180988,0.246599013909267,0.0628467554058631,0.191026151980485,-0.0630364562768516,idle
8.555,-0.400266857032397,0.236300684213001,0.869943059824142,-0.0004402590700901,-0.0439962894731062,-0.0473970281890557,-0.973677631524546,0.0682022879594098,-0.251109365314552,0.0609482729102874,0.303026741680236,-0.0652466123512282,-0.918462861373609,-0.226352899018142,0.0153594982861391,-0.166240321148063,0.0888834247757496,-0.338337887691609,-0.988486236011228,0.043692746526122,0.242787460156821,0.0736477249368124,0.183728607843726,-0.0661840289831161,idle
8.56,-0.393440082464526,0.237698324091274,0.870950424159362,0.004288226366043,-0.0450609264796465,-0.044817853718996,-0.97255366743979,0.0793989448668278,-0.254276091994645,0.0240932988351874,0.296663718188546,-0.0709356674376835,-0.917452390102418,-0.230102458147271,0.0158247657980479,-0.200866515300518,0.0938931736497679,-0.367460745308676,-0.991140679604393,0.0630623704262886,0.235174448176868,0.0944510959515382,0.179980191571294,-0.0733449607030927,idle
8.565,-0.397582082023014,0.248950531195215,0.869365044272653,0.0103967003524303,-0.0417190686921038,-0.0423744656145573,-0.963808330318043,0.0886819439730061,-0.247689309535294,-0.0156668485684249,0.30375565920427,-0.0733488369857271,-0.921365499398769,-0.226496273174862,0.0185638801480405,-0.216523352025214,0.0997622776287075,-0.404656603862624,-1.00636627248417,0.0749098574467973,0.22739057410107,0.113397112594791,0.171119626968918,-0.0760993869867791,idle
8.57,-0.394513008057222,0.246202085810247,0.865335281936158,0.0143804505032786,-0.037593737244606,-0.0408805598774067,-0.974592663867255,0.0920789104794756,-0.236914785130018,-0.0787703308937549,0.307814096578419,-0.0824496741389786,-0.924343861355121,-0.22225321518344,0.0216032643828864,-0.214226077414641,0.102053874965689,-0.438439560570503,-1.00327476983501,0.100559466796409,0.222476602589415,0.120591560377225,0.152958345604533,-0.0789742711917009,idle
8.575,-0.395777903545655,0.238894395219649,0.867265641615458,0.0257324969688035,-0.0352099252640575,-0.0363255642084196,-0.976231226446237,0.0864724219990757,-0.235090276334425,-0.129130719855118,0.316103949742416,-0.0906836263085148,-0.927901834072799,-0.216051007242963,0.0272948009567993,-0.216424178703785,0.102798621397777,-0.474885675916787,-1.00283305205377,0.120323240357586,0.217468232008685,0.123683333396912,0.134665585108682,-0.0858018216748614,idle
8.58,-0.392922556927407,0.236852062221925,0.869011128180591,0.0386822037663394,-0.0394620346676343,-0.0372576491272466,-0.972177997302986,0.0788188296138535,-0.239562018462534,-0.148026231857235,0.330836167055847,-0.106224790194363,-0.931530227666233,-0.209463960366021,0.0334521653172656,-0.230969974720531,0.100948139736294,-0.513864820960084,-0.998350644429738,0.143047967239185,0.218445507256992,0.117253512075745,0.124562000177969,-0.0913894391190955,idle
8.585,-0.385482165619566,0.250132408895634,0.870705658632533,0.0374603766108216,-0.0216914672855014,-0.0332634157226499,-0.971473713963378,0.056806246044673,-0.237600427338656,-0.186553040545985,0.346482209310368,-0.10701295144058,-0.93418491968141,-0.20281437514687,0.037862808289308,-0.246468272331129,0.103255132072735,-0.55355735356858,-0.999232162815612,0.158826733630549,0.220796254655568,0.112030353786167,0.126199135734938,-0.0935874809303594,idle
8.59,-0.3837688352864,0.249072521851662,0.868930015442515,0.0408610801918506,-0.0346772709327824,-0.0273190333695111,-0.970478888102132,0.0451198006251241,-0.226519812954704,-0.200515676902621,0.351331600282369,-0.107276363105847,-0.929987017507544,-0.196688178826101,0.0398980391844019,-0.248489590424206,0.104528956337183,-0.580832725134394,-0.999062097232491,0.181951605329026,0.223667578415177,0.103157696049925,0.103347598993105,-0.100086783757586,idle
8.595,-0.385411473362527,0.240812944585871,0.869765745968336,0.0524119855650913,-0.0315863070329727,-0.0220465697471676,-0.974517683664266,0.0367879959997733,-0.223625612532533,-0.179078682691498,0.354379445498375,-0.104989345082468,-0.931066411073757,-0.188208465817237,0.0436057316530203,-0.242829971408824,0.100749612836643,-0.618816019620913,-0.989389884503617,0.193369461166625,0.22894470830011,0.0910080798745305,0.0964788411200121,-0.101882317920262,idle
8.6,-0.38980474904992,0.243988962191081,0.875058959217106,0.0568210929632187,-0.0281654098350391,-0.0205565777281217,-0.976004015393748,0.0262280435288413,-0.22929492167233,-0.135990359326397,0.359668661141808,-0.106479320475341,-0.936547601980228,-0.183221710355285,0.0433982870178273,-0.240722472769138,0.096241944141187,-0.659444560030825,-0.986938057289923,0.20506180618531,0.229748698543416,0.0799504007155602,0.0874089534337227,-0.10646184024087,idle
8.605,-0.378151660239788,0.241157634416262,0.874428290889922,0.048979992420424,-0.0238996365129606,-0.0204461839460899,-0.973274831801963,0.0281945406063402,-0.227359058819181,-0.0931988726694485,0.375817412532367,-0.101600529448276,-0.940096011986653,-0.177380969997477,0.0463933435797245,-0.248414894760511,0.0977656274144163,-0.691349159457846,-0.977594149384864,0.205984101728572,0.233818323777168,0.0610787477134357,0.0766418985718847,-0.116422591763565,idle
8.61,-0.382934406092922,0.247337081571064,0.869314088439118,0.0622574959946436,-0.0305383819341654,-0.014275492168963,-0.96837897693985,0.0529840242283379,-0.227981942796176,-0.047250405064247,0.378385910727099,-0.103470350210625,-0.947062259422407,-0.172001985582065,0.0512765287740801,-0.251692340320777,0.0932896964418296,-0.739309785043252,-0.974437852602198,0.21240122444579,0.238588919746219,0.0538650969198569,0.0675927166463931,-0.117034430499054,idle
8.615,-0.393141443879759,0.246195247909184,0.870259612447039,0.0634254374886897,-0.0311223570895864,-0.0158600967190931,-0.967640012195166,0.0834848459436258,-0.225347583222748,-0.0304351540547303,0.392339937554505,-0.108666567530107,-0.949712505490028,-0.168546045717443,0.0523005866084583,-0.259904377997685,0.0910567537293261,-0.795256226113765,-0.96553952459714,0.206329169094453,0.244529833995113,0.039476645551329,0.0592484521323902,-0.123044025617846,idle
8.62,-0.379256351700352,0.241291127969025,0.870900809858499,0.0606001397683114,-0.0324790317388593,-0.0145034215527097,-0.965014977138541,0.107232831009016,-0.220181843249438,-0.0481906196337521,0.425072934641492,-0.109110757708549,-0.950786617618019,-0.164619792413842,0.0539771037365216,-0.269324919213074,0.0887801338085898,-0.848785737696655,-0.967236163564925,0.20254437407769,0.247745613044455,0.0251704159560655,0.0536198441865081,-0.131489111763037,idle
8.625,-0.376554184930612,0.248937471313515,0.868513372816566,0.0600995041516941,-0.0442822202294888,-0.023662376412503,-0.964776837801681,0.121041347212569,-0.227100698026447,-0.0340997081831489,0.430322123504311,-0.127290788583077,-0.945193697310169,-0.157407999698369,0.0535224101188196,-0.297343945186894,0.0892242306787212,-0.915395602629102,-0.96366854229648,0.197513927881279,0.251500619443404,0.0164459037740603,0.0508630560631574,-0.131078615667627,idle
8.63,-0.381979309472414,0.253964561390748,0.870136361535337,0.0530604070732709,-0.0493602465008839,-0.0231003723473367,-0.960874734993358,0.125155312617259,-0.227647282634372,-0.048616928159505,0.444355767780262,-0.138864115452659,-0.940395062219642,-0.152746994488117,0.0620248110940035,-0.330640252043741,0.0838722436424487,-0.966867014332666,-0.963751871953126,0.183687778440205,0.248506090500511,-0.0001574518384351,0.039455490052553,-0.132155522704124,idle
8.635,-0.380122993903075,0.267696992565259,0.873563880965437,0.0386559287961174,-0.0506607582071855,-0.0260673978570514,-0.955000022333467,0.127430465863245,-0.209140930695179,-0.0563560780591836,0.452139666004492,-0.15246336759915,-0.937382352786549,-0.150001901701598,0.0707583870437045,-0.366364365361403,0.0747495909558204,-1.02235171988105,-0.962930277963593,0.16869104747068,0.247777017917779,-0.0053590407148635,0.0272716505354782,-0.128464247138165,idle
8.64,-0.383440870812383,0.261795136188454,0.870939836238264,0.0381535118857268,-0.0608870901462315,-0.0276000787495719,-0.958673812765543,0.122760802500318,-0.197959220132151,-0.0675220930901218,0.477961678216068,-0.156628781943427,-0.935384954146478,-0.145613415750446,0.0811005013631317,-0.393882395472336,0.066156542476891,-1.07843853546037,-0.965338794163865,0.150134602162292,0.247266431932907,-0.0237545350907515,0.0165905304681034,-0.119849115955718,idle
8.645,-0.376334631512817,0.268166478344309,0.866844594825448,0.0285288904636114,-0.0631246491647043,-0.0305439738871636,-0.957409421247815,0.13203316927909,-0.200865708543433,-0.0860646821589113,0.485497570330443,-0.170962588361138,-0.939136870525853,-0.145144868022098,0.090543137599708,-0.394547596626547,0.0602665822491706,-1.12257953197398,-0.969738552834835,0.134640193862737,0.24122626569408,-0.0380469646940879,0.0074947868856972,-0.111386716365814,idle
8.65,-0.38012909846176,0.26736811933228,0.862412872491143,0.0250372522197427,-0.0739883703904261,-0.0326009094715118,-0.954632313384929,0.13154616463104,-0.213550040409234,-0.0954151668315843,0.503423514460267,-0.186723993118598,-0.94194644861675,-0.145868589523682,0.10000134971238,-0.406148064508682,0.0537853647136436,-1.17816502725344,-0.975150169181457,0.122164066518387,0.235599618441297,-0.0488836468885976,-0.0195372885672203,-0.10829649895818,idle
8.655,-0.385647322231288,0.260337337024511,0.872422741944065,0.0174311794420329,-0.0749698005600395,-0.0310166019954471,-0.952307978539541,0.126636198601845,-0.224072147803852,-0.118309491236162,0.517189051335823,-0.197301832727981,-0.941968524216741,-0.150549023888203,0.102049292874776,-0.408486429588827,0.0568517427956895,-1.23419307364806,-0.981476690302016,0.113016302900005,0.230352064050852,-0.0626808879733792,-0.0296528940107391,-0.103587653089754,idle
8.66,-0.383233034859881,0.248717233295626,0.873520089309798,0.0064196966219259,-0.0800118847841507,-0.0345894096475041,-0.951410534166426,0.106152422511968,-0.22512785113291,-0.117079726736954,0.530819044905641,-0.215938303586652,-0.945705403490578,-0.159844588409897,0.100902958872435,-0.40343119285704,0.0652841654452722,-1.28307785598329,-0.992279052152624,0.101582014501645,0.220606847395378,-0.0679511212462479,-0.0532243419549101,-0.105106673898404,idle
8.665,-0.38428901274634,0.263395079730036,0.871820132289712,0.0069232691321477,-0.080089615085137,-0.0316907443436421,-0.961351805695731,0.100636384706399,-0.24029305390805,-0.0880275421695993,0.549145802294826,-0.226601346766567,-0.949689779987747,-0.160445169397911,0.0978518669622257,-0.369713054379633,0.0804304767558462,-1.32488427017439,-0.990969415298598,0.0992279231453243,0.214366182827508,-0.0703045328502391,-0.0709161294240735,-0.10728460548981,idle
8.67,-0.385188225343709,0.263163005927771,0.872594517798526,0.011437088255252,-0.0907143363645731,-0.0389357113204497,-0.97166073057666,0.103845388295237,-0.241612784879566,-0.05502732489223,0.56378093111488,-0.240752541515117,-0.949834073849886,-0.166925018264643,0.0887356017831502,-0.336584693652163,0.0922119615278165,-1.33615288211272,-0.996546593302379,0.0870271640080556,0.202349660263363,-0.0668116481128219,-0.0916533119195844,-0.113393089887452,idle
8.675,-0.391596107345198,0.260660093205658,0.873394816115286,0.0101207782874028,-0.0891018722910517,-0.045468180241459,-0.974158015877423,0.119176807607225,-0.249913615130757,-0.0350890665931392,0.582007240950799,-0.253530853033208,-0.950232346037363,-0.178897386944529,0.0838339379695274,-0.268164652727553,0.109614534994629,-1.34684159001375,-0.996243962408913,0.084812596590947,0.195645758271036,-0.0606747214221511,-0.104180043410139,-0.112608417868614,idle
8.68,-0.394020123993301,0.256599091261274,0.873461400189217,0.0045174770672167,-0.0840181261301041,-0.0441692863323296,-0.978007256113758,0.121367785772314,-0.26000426129348,0.0025403576896991,0.614170239783492,-0.256808504195983,-0.954754167760901,-0.189303260926481,0.077252829828756,-0.185252485580367,0.121414893629694,-1.33524751990698,-0.997895351658961,0.0806015165849254,0.187325749979092,-0.060494474073245,-0.111081135272961,-0.113681074644028,idle
8.685,-0.396569372870957,0.257177214358958,0.875554386653974,0.0098326073528576,-0.0820443159112746,-0.0510198357584574,-0.987947778022386,0.119730230683952,-0.269191967975253,0.0109929222974964,0.608452825318088,-0.275265236415506,-0.960762253244334,-0.196004096169305,0.0672893141420467,-0.102285992288529,0.141271210463014,-1.31801909097447,-0.999223088641416,0.0808455744799702,0.18058452986642,-0.0701778315649655,-0.109781289291115,-0.110442842033795,idle
8.69,-0.386690967809341,0.2630918527197,0.875812536972386,0.0062557413751216,-0.0741026636555448,-0.0491007232622819,-0.998051472905052,0.113519602748701,-0.263249154372223,0.0247728937609118,0.618756450500391,-0.300477304451343,-0.970840317265529,-0.206728842458631,0.0659056274371246,-0.025862515888673,0.159954093296213,-1.25212442159017,-1.0071707305867,0.0793559914431396,0.176012268283707,-0.0796245135894091,-0.10135892500393,-0.115136944654215,idle
8.695,-0.380924302017804,0.271510866945806,0.879207409347107,0.0070883944206829,-0.0586652592059627,-0.0558131039142609,-1.00521759467876,0.103339011674722,-0.246402753781549,0.0423942267293324,0.638740907537383,-0.312772343614942,-0.980951325955118,-0.221995073001424,0.0655403397605192,0.0447574623574007,0.183183075252036,-1.1940164099754,-1.01182410247186,0.0887003063804968,0.171142323718352,-0.0954444148250138,-0.0946493815425185,-0.122128155133476,idle
8.7,-0.377516387452094,0.261521183737655,0.878459255189035,0.0145928658637367,-0.0556889519711167,-0.0524933270186439,-1.00371518365056,0.108986425963218,-0.248429334988053,0.0442337304344784,0.666228162469001,-0.323359827626428,-0.992156582129627,-0.238489099490013,0.0680115930343927,0.0957290603025878,0.200437872504817,-1.13954728276965,-1.02130286949703,0.0946885512890769,0.164322757029613,-0.107628833687393,-0.0827286269381012,-0.13632050139988,idle
8.705,-0.378026838195229,0.262827931030236,0.882907242993854,0.0060885152486606,-0.0352793590992123,-0.0706018010335999,-1.0063932013398,0.108254878655394,-0.263919994762024,0.0616233114369764,0.67133164113576,-0.348425711765237,-0.999376715543319,-0.257427004231888,0.0730610499199557,0.119465223259067,0.221949154532474,-1.06268582360641,-1.02783927759958,0.102752878635581,0.161571331280911,-0.100962239180919,-0.0717113883337411,-0.163721400378113,idle
8.71,-0.38060719839593,0.255715643246866,0.883269294181369,0.0071834419051154,-0.0154650489315086,-0.0787993926420441,-0.992735674474099,0.10099413888243,-0.268971816957282,0.0632914742479419,0.683538300289129,-0.358065585452795,-1.00421390020967,-0.282625441684588,0.0780924000340791,0.122498900606035,0.228799062612909,-0.972801411603693,-1.03464871189363,0.107482879872672,0.160113338548542,-0.102124100113487,-0.0568429906995983,-0.177514304728148,idle
8.715,-0.386194553809229,0.247482241352014,0.886553088345717,0.0050780298637573,0.0009206389165656,-0.084196017348381,-0.988739291290182,0.085262468804657,-0.270142954330096,0.0587537374812854,0.700293584720639,-0.37020518553452,-1.0062169629076,-0.305114848570227,0.0816172147079583,0.108147542824046,0.240179220264307,-0.893301154496826,-1.03093135447871,0.110051247404085,0.155838586155044,-0.106737011710179,-0.0393277894376121,-0.192804166909292,idle
8.72,-0.388331193567523,0.249981231004083,0.886251092295872,0.0010767845668874,0.0250012774849875,-0.0918968899351256,-0.98453623312065,0.0742422237989742,-0.274787587527589,0.0606996288934719,0.705441901227132,-0.390636729438255,-1.0029001504376,-0.332315025774977,0.0820327722983885,0.0692495674002924,0.255978793516482,-0.77659913906712,-1.04031682317273,0.114850605076687,0.159596002334312,-0.102053192278549,-0.024681101442936,-0.207043847654443,idle
8.725,-0.379285852399611,0.250861168350151,0.883734351731051,0.0065377608133386,0.0363662249057589,-0.101732665570427,-0.991113936041433,0.0591247312914046,-0.291816331841837,0.0701184253671091,0.72123833290448,-0.391363732366262,-0.9987023904275,-0.346425079566304,0.0823238282585983,0.0328179291187227,0.271124686252984,-0.667086294810894,-1.04773206379351,0.122094576693812,0.157342533164553,-0.0991571353778083,-0.0243967974244893,-0.217036148638472,idle
8.73,-0.383025465035485,0.248885269203642,0.884916604434262,0.0040127816761465,0.061794490961579,-0.114007245108163,-1.00486653708251,0.0468561483877024,-0.295015985750867,0.111542492096664,0.727556084775176,-0.40253585885742,-0.988311236394803,-0.373518463497438,0.0757786377494851,-0.0090780564489189,0.28018252211718,-0.54454078093265,-1.04484388132231,0.119470182673627,0.157504912895049,-0.0906397706488606,-0.0375753425606729,-0.224029384170664,idle
8.735,-0.388330957690111,0.242202812538954,0.890014704184134,-0.0013471032321361,0.0835799926793251,-0.123281714448472,-1.01193222800029,0.0418101294289737,-0.308439053308877,0.145896252923051,0.737856266434594,-0.406856228812889,-0.981565264203533,-0.39391606501101,0.0679178912448985,-0.0929361208397917,0.291637866324717,-0.421766468189374,-1.03918841813087,0.121186245071206,0.154814117248755,-0.081509950812377,-0.0503014778167897,-0.228669404983521,idle
8.74,-0.395709077556448,0.240682180628542,0.888353819329823,-0.0219263758312189,0.120455419806529,-0.140001586330289,-1.02095502388628,0.0444334020804505,-0.321609408639152,0.165646821867206,0.754297462839682,-0.420265892164509,-0.981224540046651,-0.411897608002637,0.0584837128286607,-0.163502509144407,0.304392473499475,-0.339195461627046,-1.03997550535271,0.123989518248366,0.156289801962955,-0.0706716110862317,-0.0686127847793827,-0.232892573109653,idle
8.745,-0.391364823872318,0.241849839777829,0.883028275093036,-0.0234413202344925,0.145038623366703,-0.139411403082809,-1.01542806698152,0.0396051225448721,-0.317953414017764,0.173839197148783,0.763551268066248,-0.430824837078979,-0.99267890966927,-0.421159433756178,0.0531258094344551,-0.240798416377776,0.316182659000287,-0.251291423565988,-1.035218239363,0.130019005249541,0.155423793446715,-0.0574586258425437,-0.0844357047180548,-0.230667516709706,idle
8.75,-0.405919246652258,0.23175142238795,0.887614325546716,-0.0523053653891906,0.182013371935024,-0.154109715925357,-1.01674663028061,0.0344410653954644,-0.331413029460783,0.182646540742054,0.786605514610469,-0.448357517073808,-0.97633318960836,-0.434268249672946,0.0566701940777984,-0.328736347770228,0.320895850658417,-0.155827594468894,-1.03717885591575,0.134601305490819,0.156575376231649,-0.047485128653613,-0.095548066357009,-0.228772884798418,idle
8.755,-0.413521830627842,0.219553448778341,0.890726101944428,-0.0769384051805488,0.220514996844595,-0.161308037917214,-1.02462292594908,0.0251251991061008,-0.34348171566303,0.196129938118838,0.799488554702565,-0.471052915899106,-0.977313336344531,-0.436313914949813,0.0604889825542395,-0.375269211086726,0.313231282061852,-0.136803065105565,-1.03084094332453,0.140576201729994,0.160515805627814,-0.0345142305856358,-0.0961677689930144,-0.231112778186798,idle
8.76,-0.403807534541077,0.235615218425104,0.896089089748932,-0.097858601891389,0.259888151801199,-0.155336094334996,-1.03999179409515,0.0125382480759131,-0.335391467707667,0.182581043156623,0.834804891789503,-0.476840823888779,-0.997962294279164,-0.439846202023931,0.0594156624839594,-0.441179929486445,0.32215950126757,-0.0799841185972425,-1.0311970960197,0.147008674355404,0.163062238779376,-0.0206880025806586,-0.0932243728806887,-0.231112778186798,idle
8.765,-0.352250462372903,0.257607326963622,0.904350984785997,-0.132940026075835,0.334262256090206,-0.160560820942469,-1.05604008612612,0.0113076108266276,-0.317582127412094,0.191941866787852,0.839422172850166,-0.51285190078733,-0.990955452175378,-0.438640840077428,0.0668052844363912,-0.44559035761145,0.322538048089825,-0.0569104839554979,-1.02650154230238,0.149222445957278,0.175201265647493,-0.0111348391411185,-0.0932181301336918,-0.232502960811531,idle
8.77,-0.339992571797654,0.253007830892834,0.897973427716612,-0.194509709724089,0.390159370914416,-0.18732156104731,-1.06676462305151,0.0124648825230581,-0.319847216052998,0.175994894831231,0.857252551532036,-0.530539444028273,-1.00354375638169,-0.439071418763924,0.0752895563534327,-0.386452047284885,0.323251861286714,-0.0859626244191233,-1.02617249242393,0.158417005223579,0.172340551353595,0.0004631054371312,-0.101597539461252,-0.227460949374432,idle
8.775,-0.405955979897301,0.213868461780411,0.903442045398105,-0.223371451824146,0.466779968490004,-0.204963346333174,-1.08447974332782,0.0002210085087621,-0.325655413285523,0.154201354543731,0.888101314047142,-0.550217874050846,-1.0382416699458,-0.430228824004293,0.0762058664578447,-0.333580282742779,0.337652502119085,-0.101709272682103,-1.02184640512704,0.161017094989174,0.181129196630677,0.0118419390014253,-0.105394631813771,-0.232057228305327,idle
8.78,-0.37179347493042,0.245894509670461,0.921868189059195,-0.239564425668175,0.545683627914628,-0.209063428688077,-1.08928089225753,-0.0255775742570146,-0.317231795430206,0.141512512286291,0.912820263258184,-0.568157610252739,-1.04987738131876,-0.416964100376381,0.0751450666384454,-0.253773623972273,0.353268289956654,-0.0812278517967173,-1.02425649303469,0.164558326825947,0.189628643580775,0.0137308277189732,-0.112222393228868,-0.236409077863151,idle
8.785,-0.373882128831441,0.26871704228601,0.915388645644436,-0.255465285545657,0.63937152190254,-0.226186323746866,-1.10781466231823,-0.0101944627640705,-0.305459442022325,0.115323490551065,0.968002508520983,-0.597979850969977,-1.07681107086869,-0.392176108468712,0.0886002776870204,-0.169227748929588,0.363036259124494,-0.0801656827198263,-1.03046185943,0.169246584554251,0.193730084991272,0.0150933589335406,-0.116767046126071,-0.233601961137807,idle
8.79,-0.448887882808356,0.182061024418718,0.965473142029839,-0.245835734025608,0.744745531726119,-0.202093035939145,-1.12010847625119,9.44442766095139e-05,-0.306225857583993,0.0744905055261586,0.99272937575964,-0.621489913069329,-1.11026832705934,-0.360786285970478,0.0938305688289888,-0.0555136519121544,0.373533450859035,-0.0629961580541412,-1.03657637406418,0.175914538853214,0.201003469727744,0.0136537379688771,-0.12919468605847,-0.242909655714837,idle
8.795,-0.359108790971439,0.231534467008018,0.960446926108224,-0.174480153847364,0.850471672071572,-0.166229233270039,-1.16134719439563,0.014799120162017,-0.277718749443571,0.0599848808114369,1.01738800944654,-0.654527627843295,-1.14633208547406,-0.327281826946716,0.112491115692914,0.0440055982171178,0.386520007775641,-0.0268264612029305,-1.05042454574186,0.187602130224298,0.210046859964515,0.0088440515100956,-0.145960371509551,-0.244312145776711,idle
8.8,-0.314271194370847,0.361347676431281,0.926678454807108,-0.159405705400691,0.979873612909718,-0.200594054444725,-1.2092308418042,0.102256372097929,-0.268451529941759,0.0466460440078273,1.04541606387577,-0.681465515007847,-1.18186291759397,-0.295805194273798,0.125647396871985,0.160507123817613,0.395558901855079,0.0114086792231094,-1.07808177181426,0.191602121997973,0.215207522568849,0.0025043020788372,-0.16708399986868,-0.246829751050328,idle
8.805,-0.390523762531783,0.360898226726738,0.919715371210251,-0.153586959761496,1.04822761785351,-0.241902591642059,-1.22167060607747,0.189890134849479,-0.27074902679114,0.0437530150245158,1.07672953659269,-0.692559978240479,-1.20792250649292,-0.26720669980923,0.13499472131212,0.262711359631047,0.410181230019558,0.0506937674786719,-1.10781997608154,0.193991724383946,0.222065034822794,-0.0001748056038852,-0.178852472197839,-0.246843880742084,idle
8.81,-0.434091348995759,0.255128865213366,0.925180399910206,-0.13547545893812,1.14146946220113,-0.309971296017805,-1.2038763091781,0.161315913637196,-0.30393056800566,-0.051053221364584,1.11890716671289,-0.706284049482781,-1.24106519826382,-0.234071425133425,0.150766097751646,0.370183327524621,0.423207665315131,0.0719353515713124,-1.15941034356451,0.191783417635243,0.216202102078819,0.0114353568723659,-0.190639600705806,-0.244432461105158,idle
8.815,-0.383555478689091,0.260899316818475,0.918782362571195,-0.134628720104395,1.25024673920009,-0.351919809372633,-1.18828598641228,0.0918360785400749,-0.285870925677125,-0.0962585290845092,1.16537555618484,-0.738235723135097,-1.25509655117411,-0.209446249974644,0.153928194889893,0.437064133573928,0.429279349524731,0.109846684909101,-1.21211765788323,0.191935020862827,0.206398445345594,0.037189734453575,-0.20962690107421,-0.244344088827721,idle
8.82,-0.387141878168022,0.278900781874536,0.909322475201902,-0.0893655819593536,1.34621297043018,-0.400419964513763,-1.17316757076892,0.0599411916203912,-0.230960969098922,-0.132202686260592,1.24598846621248,-0.768777947829767,-1.26634207449461,-0.175007061801457,0.159151222972494,0.49333558367324,0.408151884518894,0.182049711267588,-1.25619678047267,0.187684702358298,0.191832780316318,0.060415238556627,-0.220034327098637,-0.24261189988766,idle
8.825,-0.445318415187191,0.245855975700366,0.916584504085288,-0.0519710890033498,1.42364717748782,-0.448912769660438,-1.15299475847364,0.0679643246487262,-0.238662752587984,-0.100515647071788,1.2810515717338,-0.770214006040791,-1.24918647255795,-0.139084587104549,0.169774694734155,0.532195946565559,0.398646132966553,0.232579177327246,-1.28030393708446,0.203651346652942,0.164506464952053,0.0879458358814765,-0.257594254539604,-0.239806978113936,idle
8.83,-0.375732894401655,0.289573795757332,0.917373357995533,-0.0704541332517932,1.52649760530514,-0.475735866760961,-1.13354996244077,0.0490763863186712,-0.217791961270334,-0.026338920804505,1.31570265453109,-0.749032091054359,-1.2331946154538,-0.101033307066463,0.174961304262619,0.581727202779407,0.384740241005323,0.291566260196156,-1.27587201753393,0.211986358312417,0.144740218440384,0.103688548653002,-0.306747759002355,-0.237752598547645,idle
8.835,-0.410903866243668,0.236914180725373,0.908078763669165,-0.0538364064668618,1.62052714090059,-0.516438717196318,-1.13100290764421,0.0105707569526498,-0.221743385243973,0.0712388057627796,1.37805817871043,-0.752337178940259,-1.22251813904258,-0.057411765243797,0.182024977259862,0.631031436897513,0.364258787607072,0.366838791361612,-1.24848201017159,0.212999458762364,0.129188692323987,0.0999065936275005,-0.357637437911138,-0.221054739638112,idle
8.84,-0.447674716093479,0.24809661390904,0.914140647440467,-0.0291491988635887,1.72583107348728,-0.541707405505627,-1.14042866268856,0.0309737287223809,-0.200928877622749,0.173288421795038,1.44505444774673,-0.780614287607649,-1.22138743049244,-0.0186322783477431,0.196691900018529,0.670151109666797,0.345301927218555,0.446451839925592,-1.20968867815814,0.20556620616936,0.110272578796716,0.0727703730345308,-0.408824055195493,-0.192961246535397,idle
8.845,-0.435531642272232,0.286463691726258,0.910389008609295,-0.0336273222045564,1.85444831315953,-0.580599293114458,-1.14411817091353,0.0617671723937548,-0.181760855008878,0.210061353810925,1.52279480106214,-0.820436228155392,-1.2314317125317,0.0141773639454037,0.209592785646299,0.677518988320668,0.325847952156438,0.510823302548903,-1.18757284658296,0.199405808800954,0.107288061726872,0.0037895229722521,-0.450291806856134,-0.15900786150215,idle
8.85,-0.415259825990705,0.277260439667113,0.924354148020735,-0.0418169292144529,1.96258064245387,-0.602927004332136,-1.17010452410282,0.0536915306710508,-0.169308848417956,0.230758257450345,1.58744264349787,-0.843690284754087,-1.24245176854449,0.0474867091369434,0.224783296437187,0.657852236227426,0.308488509256832,0.604315235001399,-1.19168036124122,0.189109203753923,0.100435192275618,-0.105868624891986,-0.478251971345027,-0.113429985548232,idle
8.855,-0.425451450670107,0.252643090619686,0.928350045891718,-0.0179035326624793,2.09145850662467,-0.627526139743364,-1.2027530233519,0.0423781071859391,-0.159433611448114,0.206827452518644,1.66522131754541,-0.884396851094846,-1.25613124722147,0.0703765452358407,0.237596967558801,0.621350340912584,0.293280576233065,0.692522768936439,-1.20570650412319,0.176229995201286,0.108561487904493,-0.239502654837232,-0.46659813305129,-0.0836565869760582,idle
8.86,-0.43630613398618,0.293421823371657,0.925998822829882,-0.0240464908548474,2.26092542484018,-0.669482327002866,-1.234179949266,0.0545260553959219,-0.132694191265401,0.166011523668108,1.72850802152238,-0.922773118027163,-1.27142479452727,0.0875783472262644,0.241546052204806,0.569480692375685,0.282201198924777,0.79380062975551,-1.22327878587006,0.174270919787614,0.104563220932056,-0.348442802907007,-0.443678950463706,-0.0727540192988946,idle
8.865,-0.449412503907698,0.310118039925713,0.922757156688161,-0.0289422128769585,2.40740091938433,-0.71405998607024,-1.26704241184237,0.0808856817178722,-0.119345816668276,0.0844762528573292,1.82786903546418,-0.961975751931097,-1.2900564457984,0.105039122791282,0.235939745825498,0.489656877446433,0.276037363811505,0.930530283652017,-1.25535775407731,0.171330949802452,0.102369829119814,-0.465880308596666,-0.384150592342846,-0.0666484512175639,idle
8.87,-0.458652497563907,0.292780013039186,0.925284213461605,-0.0087444160896154,2.57485921859397,-0.774479256081063,-1.2803328949498,0.0499719663149976,-0.131382008856439,-0.006690151761876,1.92442704688824,-0.975533584373032,-1.29645758067921,0.113705805212364,0.214914368405996,0.423792056761912,0.285081187257486,1.04619859648945,-1.26355167646533,0.1637716995425,0.0917232006873719,-0.522282356113512,-0.339063366239862,-0.0640442971137729,idle
8.875,-0.47052246825424,0.291032386045493,0.925365949727973,0.0168655005070673,2.74691307405994,-0.849132090502639,-1.29515309614052,0.001871330552044,-0.135915249189991,-0.0727292485077579,2.03182463663477,-0.980415498425909,-1.29335668136788,0.124282641264945,0.181474390727074,0.351081044298619,0.302680542400499,1.1775491862858,-1.25904076696786,0.148763526821069,0.0800573245983189,-0.525372964002671,-0.310084701114796,-0.0731954526876847,idle
8.88,-0.473161925030843,0.302539024989684,0.93239867589048,0.0211721170015506,2.8994735658791,-0.911379458230754,-1.30919754489055,-0.0387428348557515,-0.11576361029353,-0.0974963070659848,2.12847398883622,-0.984943704882125,-1.28842917395459,0.137658399150013,0.143406356898487,0.261277913581692,0.335299789643249,1.30098799711008,-1.2420792496282,0.126505503418901,0.0616012015952091,-0.47514939580764,-0.30027019438188,-0.0780931204252398,idle
8.885,-0.478528662211521,0.323702430383204,0.931752953171423,0.0081430861036007,3.0918775069203,-0.988013430245998,-1.30811897591318,-0.0702202346821829,-0.0991790852816302,-0.076880799263601,2.21031104458514,-0.977179953660474,-1.27801206147166,0.155461267748451,0.090902505945844,0.157428421098274,0.372700842199639,1.42222201326926,-1.20398334726198,0.109321291800253,0.0432656956847177,-0.388668595209576,-0.316521221407266,-0.0760924127130044,idle
8.89,-0.496760591009948,0.307156251456507,0.927559719686996,0.0025139817474811,3.25111313725538,-1.04291476797125,-1.3180530612891,-0.103223726776985,-0.101798369403711,-0.0296732773732428,2.30619132868912,-0.967201253716588,-1.24872851814661,0.184806306596258,0.0331886013861824,0.0309380147290015,0.426784270395229,1.55036102013815,-1.15921731557858,0.0799330887374199,0.0393157218279755,-0.289010859090066,-0.352640899068061,-0.0741270951085083,idle
8.895,-0.531925598611788,0.266392980882139,0.915831581371757,-0.0221537590036267,3.47640011056356,-1.1209053161588,-1.33229015186926,-0.118697680440736,-0.114429326527616,0.0061800333159739,2.39365007768341,-0.958686460107567,-1.22584521798166,0.225976292057727,-0.0188870515422289,-0.0783385175425197,0.487938960105113,1.68494664015894,-1.10383945347094,0.0507825787636359,0.0285205099320985,-0.19467140882785,-0.39664298140644,-0.0627598524733592,idle
8.9,-0.540282466988326,0.304940187303479,0.926688828781152,-0.0631585198872505,3.69640558697636,-1.18820713087072,-1.35076645174554,-0.120265405956037,-0.131163404802043,0.061237670990859,2.49284797814115,-0.945636276537811,-1.21286229089107,0.263789106823127,-0.065828654740454,-0.165323280588339,0.541835357800678,1.79919868942276,-1.05321075312523,0.0271872663337639,0.0243150400994204,-0.14786674422998,-0.446107790523086,-0.0398625900952881,idle
8.905,-0.556846430103633,0.336285295676682,0.911304113056176,-0.134130042141261,3.97120671314834,-1.26018903292744,-1.3747192311796,-0.120925716744406,-0.129729129337984,0.115349147089217,2.56955780626619,-0.93211945201311,-1.21442619017706,0.350944782334314,-0.13092427395094,-0.23921341953213,0.649221966005683,2.06138844261824,-0.999415373708129,0.0026617854881262,0.0223314118881153,-0.140228107656196,-0.49321015214959,0.000255770676204,idle
8.91,-0.555877502552403,0.346742615141227,0.907588089708282,-0.217747833963778,4.21798476157473,-1.32230527837145,-1.41267169445129,-0.128296271770903,-0.149868458137827,0.156251946049673,2.64172677092994,-0.91354025475567,-1.20874836848623,0.447609404990971,-0.198127290161306,-0.197481353492084,0.76390292045276,2.39283058898499,-0.963277921669367,-0.0198049870048193,0.027064476847428,-0.18052799474675,-0.510572893642503,0.0388469367413233,idle
8.915,-0.541944592223052,0.371492242495388,0.944273033790919,-0.367605638755624,4.49358517111113,-1.39174548324912,-1.4566048204262,-0.126045038437153,-0.168500882986089,0.189768177151837,2.69663847419524,-0.88639020826396,-1.19827029454379,0.598287245335286,-0.285949310670691,0.0807074326971864,0.844975173722509,2.73696348201633,-0.927354895427885,-0.0372478079658816,0.0292126746247381,-0.239866365686036,-0.510531689531762,0.075373947593949,idle
8.92,-0.558074864589748,0.345047659445252,0.971567844123131,-0.534819208713649,4.7511411588899,-1.46202733311689,-1.48369153421666,-0.126453739259671,-0.21089504818785,0.187685379218031,2.71140431313977,-0.858003806325156,-1.24742878882344,0.675651210765731,-0.344739991661041,0.441554118898842,0.904328601396032,3.05062355994717,-0.904468840665924,-0.0484353391472649,0.0313627204542597,-0.300591812215495,-0.485989639704593,0.097464444059409,idle
8.925,-0.568179864927606,0.353243129441478,0.958709180833097,-0.70113594358409,4.96575201916735,-1.53736219550186,-1.49057794410558,-0.0976162701557859,-0.24657349025765,0.237487894529666,2.70981996720226,-0.824813531334734,-1.28280125630497,0.593284133257742,-0.365259365978031,0.661228174933528,0.9508384503193,3.25060109368308,-0.882520369979995,-0.0530280854885671,0.033763355895785,-0.345173393620744,-0.443070353203161,0.105536497185491,idle
8.93,-0.593945370800216,0.341423961353979,0.918055452661222,-0.936241451088237,5.21779062238086,-1.62019060320599,-1.47522943650571,-0.0694525186806529,-0.268628479720016,0.261985258464112,2.73105462754864,-0.81598732658691,-1.21482380129139,0.365429920913132,-0.429610741028874,0.773165364265438,1.03571360880878,3.3360730672432,-0.853024049969709,-0.0448880948088901,0.0442358459560639,-0.352777510881424,-0.36467543112875,0.0805180813216872,idle
8.935,-0.6717980069995,0.313927972529909,0.916952508080823,-1.18232510707541,5.46140529998135,-1.72057873352566,-1.44618718122916,-0.0445123821659558,-0.308066198909055,0.210946529788584,2.7552857551971,-0.812901048431107,-1.15230123111532,0.177664172860906,-0.491186329527823,0.84823410914343,1.10765900662103,3.27675331366647,-0.836075687014543,-0.0393137523576712,0.0518702474750797,-0.326078761400793,-0.275872709433529,0.0422605420999185,idle
8.94,-0.747381942146334,0.308388592926215,0.891128122187666,-1.44781563582231,5.66363040831553,-1.81784718838131,-1.41627961848963,-0.0331037988745999,-0.433012383484761,0.131099440482865,2.70877649510262,-0.787453727809685,-1.17609599942618,0.0870709185466389,-0.536792890231531,0.981119410611703,1.1378877208061,3.21544131276459,-0.819806907572725,-0.0418023247210549,0.0600250919588842,-0.257604283085158,-0.207394195798922,0.0020263217609184,idle
8.945,-0.754155677985682,0.274103070263989,0.816143146654732,-1.74372269427305,5.99675160903624,-1.95783384510999,-1.40345502556921,-0.0005109966412317,-0.486761716271038,0.13851801155533,2.62932028148031,-0.757324532890791,-1.20349000737667,0.0765972869367218,-0.524660766512507,0.84978877621085,1.016046179915,3.33123938176732,-0.819857223227062,-0.0389844645343962,0.0665895135465999,-0.140520904123103,-0.166157763662981,-0.0411589534137047,idle
8.95,-0.785151332839622,0.179818441224424,0.840846219296757,-1.86408489643432,6.28257185867037,-2.09584791023152,-1.41881736809966,0.0561305997933583,-0.393618596619262,0.276440503479879,2.62217275994755,-0.724556274380437,-1.33417156112931,0.0999411755907368,-0.416358285352996,0.567698109975754,0.886239717582497,3.42653294628078,-0.810680680760898,-0.0417545592316189,0.070176247616116,-0.0404427811336723,-0.149918440474744,-0.066995529425782,idle
8.955,-0.76849512241104,0.205986116692268,0.806528021098963,-2.06795909526509,6.54583464391365,-2.22625496663125,-1.40686912359155,0.138338728300386,-0.108221435203107,0.568114812822389,2.63947125484292,-0.718058472846472,-1.13229591954168,0.0210811586238624,-0.456964042568034,0.148358452027627,0.765767535187498,3.36638099480691,-0.791123699494506,-0.0503396839121263,0.0782756425605123,0.0897656417400404,-0.137165421457075,-0.0967843358045688,idle
8.96,-0.716462782446855,0.276745822990923,0.766298909229144,-2.1269241977907,6.75461487949536,-2.40169797958206,-1.39379108233772,0.110050860155883,0.139184821974146,0.887076554733385,2.66246969411041,-0.721179723739624,-1.19484239696844,0.0327783474559767,-0.324861464015514,-0.0994697010303747,0.59265183565148,3.14750151373948,-0.766238236145675,-0.0557892175090918,0.0837473425510096,0.188884334778591,-0.12752276961914,-0.111378277003565,idle
8.965,-0.602713061420888,0.594826423970337,0.837557011989555,-2.09857163810401,6.92385479248136,-2.47958723061825,-1.42337989673281,0.192630643301249,0.104510776756689,0.746762467053944,2.58286447282294,-0.73226898407834,-1.30926427999936,0.0089856251983216,-0.255772288997643,-0.442647314131332,0.341107361597066,2.9647991487582,-0.751795406615054,-0.0739158854264119,0.0876654891589778,0.267502973248052,-0.103910693882664,-0.115565929462269,idle
8.97,-0.549518056891114,0.775877065374906,0.947315753782603,-2.11676545142045,7.10115137098054,-2.46521969664144,-1.41886333021411,0.380490141442747,-0.0316042536134982,0.780845402545447,2.39550856249911,-0.71484711884753,-1.25211266256359,-0.0472949492259694,-0.257399454218328,-0.830879149761164,0.192542303994571,2.84780468977793,-0.745826351443854,-0.0792762739876599,0.0794983003207893,0.277213744617126,-0.0865519301323036,-0.124507715167485,idle
8.975,-0.734045888387799,0.570068898254593,0.926415311403356,-2.11764069915593,7.12848873190313,-2.51094839112424,-1.38694812523186,0.449709887339397,-0.266233911174045,0.688333039106759,2.17743700312877,-0.722346266132328,-1.40424003228254,-0.128753360473135,-0.13157307946281,-1.35525750963521,0.0371089104826245,2.60889228656582,-0.73998260342792,-0.0842062918816862,0.0688178860662321,0.252993822322551,-0.053238430379611,-0.124543334398871,idle
8.98,-1.11529527905872,0.252828862164571,0.903758397177977,-2.53348365015349,7.20092370336262,-2.6335580283792,-1.32948331456329,0.435671910699657,-0.463224671037156,0.558759980208164,2.0358320965206,-0.720945869498868,-1.47038930170253,-0.217007556301981,-0.0789734737260224,-1.61073191403083,-0.14995897981052,2.4769924140778,-0.750697233029334,-0.0942153855597192,0.0529822023076162,0.198073930901519,-0.0063952828421381,-0.11284420592137,walk-rampascent
8.985,-1.3355811749965,0.16573400499799,1.47416976787728,-2.45934731871516,7.02507836697478,-2.79314479376172,-1.23787923476236,0.357983189845978,-0.626488751080665,0.391002657116081,1.86245872390826,-0.650512282287594,-1.43253433362787,-0.317716057632527,-0.0116408025765082,-1.88237014304493,-0.412247910029356,2.37079349117002,-0.775401132314268,-0.103328863799627,0.0434163786800178,0.118337160312182,0.0376262760089975,-0.105141593790197,walk-rampascent
8.99,-1.61856482401223,0.630715101218295,1.52153497889518,-1.74992028646854,6.43107228406234,-2.79903499799604,-1.20262550308648,0.305043417918069,-0.696265216551079,0.199732562584317,1.79197198831536,-0.606639185243642,-1.43537983077514,-0.38202180001981,0.0323536499189267,-1.9070988847292,-0.588901960977263,2.18058315155772,-0.810263923775244,-0.111513661398854,0.0299526696890212,0.0300497324561754,0.0605452090072738,-0.0994399720776146,walk-rampascent
8.995,-1.84291675275184,0.87618395375302,1.39836496416807,-1.43739178730361,5.8871580892702,-2.67078461551031,-1.18817813136233,0.299033212372048,-0.717281201160526,0.16945713378369,1.7673483670833,-0.600468452976903,-1.43176389570575,-0.410008255125232,0.0836055147381192,-1.78317941002741,-0.727806620708529,2.11367709763492,-0.857154079777577,-0.12597720689898,0.0146777706625609,-0.0471797978685333,0.0848048732162939,-0.0772663240763974,walk-rampascent
9.0,-1.962683739811,0.958364244905554,1.38005330961148,-1.21906823588877,5.48031871144225,-2.58045573044224,-1.18746263943624,0.328660934638891,-0.725641125485359,0.290517488144367,1.71684966499865,-0.599976231719539,-1.4225850958806,-0.405930747909845,0.125283712292574,-1.68573423244398,-0.843635997742441,2.13698286759226,-0.89322056102503,-0.134920665438419,0.006651129025473,-0.111173042938422,0.101283123916186,-0.05163998707933,walk-rampascent
9.005,-1.89221551910497,1.03754735975662,1.28740148442961,-1.55753000108695,4.88137450115922,-2.44710654383297,-1.16959619976086,0.368629176713849,-0.771198424400522,0.594998044427292,1.67417377449847,-0.616508425679461,-1.4106927337797,-0.384974871219001,0.162321153888008,-1.68544989565219,-0.985385185170528,2.2343939368894,-0.929547649675372,-0.148863103314314,0.0021754304158253,-0.178375588493392,0.111593223463029,-0.0212894591623706,walk-rampascent
9.01,-1.86975814614676,1.04934184650404,1.39779821378994,-1.55028479663777,4.42995975905255,-2.32693714129245,-1.10904828563905,0.396718866877106,-0.91585151314409,0.943698050197879,1.76730971457259,-0.654474533392474,-1.39650836537079,-0.36288143122497,0.160729036354157,-1.77286039763919,-1.06209240213767,2.36740843472623,-0.970884718258349,-0.159881953232774,0.0020381214085694,-0.205738623617764,0.124066660089444,-0.0080632264225811,walk-rampascent
9.015,-1.84659326704053,1.00306329805455,1.54782621010854,-1.60137072901074,3.81894124178925,-2.19355425198518,-1.05216048009243,0.387788133182683,-1.00908122967745,1.02146027990759,1.95933709170695,-0.692961083034278,-1.3259079338592,-0.342317829400601,0.146782879432524,-1.75740583379779,-1.15179739701339,2.44474368408991,-1.0031710949551,-0.165342106924737,0.0077220899801422,-0.195475550094352,0.142076805009504,-0.0214137075594406,walk-rampascent
9.02,-1.73315292195255,0.728744483701677,1.62237115177175,-1.96155237193646,3.15353765977631,-2.11038625269602,-0.983800625602132,0.354428723377762,-1.07880874856334,0.747665772090431,1.99186638301118,-0.732396603461257,-1.35742277425127,-0.328438538131533,0.134484412520748,-1.61494910418119,-1.20597364889412,2.44982140980761,-1.0397631164014,-0.170969885095725,0.0060389637801449,-0.184846751882268,0.169529937433522,-0.0409826286326869,walk-rampascent
9.025,-1.90074403418468,0.34956258150686,1.82559492809379,-0.955735287779342,2.25738179146375,-2.11783847629167,-0.896970685342503,0.347103760861004,-1.13820231497789,0.33620531737333,1.94686803751644,-0.709922493473656,-1.35889114019957,-0.321502795619419,0.0988049107691247,-1.36323908457486,-1.25886507628733,2.58383010738221,-1.07133823774043,-0.17743685378508,0.0092492163699123,-0.176073863172255,0.178345934486666,-0.0551458531506849,walk-rampascent
9.03,-1.86961069020758,0.576335190711658,2.9069833099838,0.613596240083699,1.32343325773307,-1.92331189423036,-0.840275043207933,0.315228278718061,-1.1106259170633,-0.181236987178956,1.90418287047555,-0.643836353046988,-1.32414505981369,-0.332515455986928,0.0916650084341004,-0.972969732016331,-1.30932017411879,2.75082841196943,-1.10461229037245,-0.186093393589845,0.0208028035669063,-0.185118470713449,0.173779447883664,-0.0722490639531165,walk-rampascent
9.035,-1.49450751047908,0.744566699384395,2.89950435957609,1.54422358801562,-0.523659593922086,-1.40306662876967,-0.809480271574682,0.23492281888373,-1.06555978572684,-0.632442552710313,1.82410916749124,-0.569256266612167,-1.34071840538837,-0.324224146924418,0.0945945777859598,-0.545321121926004,-1.35162581177954,2.83402224772864,-1.12082385993684,-0.187993161668476,0.0348631915743836,-0.204159420576826,0.179689908230454,-0.0914430751637298,walk-rampascent
9.04,-0.990191107193152,1.16786713937034,1.81588351566135,0.577652318920083,-1.33590522018467,-1.01458042210544,-0.864064502096597,0.133574213706722,-0.852588067557906,-0.90458064979056,1.75752283345467,-0.507882939537451,-1.36008872379819,-0.325774337278087,0.0933379505508495,-0.0045167402813328,-1.32923369145913,3.03009110557759,-1.13713929263713,-0.189131739491298,0.051577305991916,-0.236254328111313,0.177500218268495,-0.0995660165082401,walk-rampascent
9.045,-0.347654230819939,0.572254144355165,1.22720438529366,0.947354960660277,-1.76671165010764,-1.0362122098581,-0.989881034379911,0.125167847690762,-0.326101891537821,-0.66620031512707,1.4489122874215,-0.397605999329071,-1.36586130580255,-0.320559440858203,0.161317967131896,0.294333308604527,-1.33649717071263,3.16044620891336,-1.1514139954844,-0.190280860737061,0.0650938651491232,-0.285161248489833,0.166399383776784,-0.120008248802038,walk-rampascent
9.05,-0.0884442409074436,0.543225112200772,0.729424656171198,0.816925157227669,-1.78056254705344,-1.46707396176711,-1.07335039160156,0.168843266465187,-0.0563531835329655,-0.0488750251865746,1.13899370419515,-0.296454761859726,-1.35517593487942,-0.371110311159516,0.227360522586683,0.878322136092036,-1.25122937384842,3.31886212414037,-1.15031922305572,-0.188638604367812,0.0836795087109239,-0.338577445778296,0.131799013084556,-0.128718622481051,walk-rampascent
9.055,-0.0146082095155739,0.76679660610714,0.443115972078904,0.414346585614086,-1.54642778716346,-1.64335151018055,-1.13335118966805,0.176774398271926,-0.0071876212605584,0.481900866744581,1.04138951916126,-0.136554988568231,-1.46654204690202,-0.36550252285505,0.264305598062568,1.31052564798015,-1.1189988987335,3.29891432020766,-1.1449461539231,-0.181863858359445,0.102267807819602,-0.399565811937877,0.0967264902542319,-0.155310534454414,walk-rampascent
9.06,-0.0651804846524814,0.771956673174716,0.386056811830752,0.136961666523555,-1.26920964203256,-1.5347482655544,-1.14454695993628,0.121198761949099,-0.0808215592368054,0.763566102604335,0.974082979975948,0.0301700853324635,-1.48290194130914,-0.362932445700047,0.302586288693501,1.75049097994571,-0.917670735649463,3.37267519984296,-1.14567260214006,-0.1759877245123,0.108314368112939,-0.444035644455981,0.0508985571194951,-0.178851134459146,walk-rampascent
9.065,-0.158515279963555,0.686104214354565,0.45472415547076,0.0377979562896025,-1.01584229885522,-1.37336566459553,-1.06687380325942,0.0307071565425668,-0.209282050638419,0.593172394206277,0.789424262873495,0.178135080010741,-1.43925594201076,-0.292398536043784,0.330655382856045,2.06388388529965,-0.74001128607069,3.48666988145787,-1.14817863366131,-0.15204370011647,0.119171052641126,-0.469453344405548,0.0047164582937064,-0.211709409784972,walk-rampascent
9.07,-0.257918738393464,0.673132773468226,0.606682408107558,0.11186891615739,-0.834970652678553,-1.18638404677975,-0.963036528290018,-0.0422574469708739,-0.383378897548961,0.300008723074758,0.58384675843704,0.317281546650656,-1.38648104747505,-0.219986562475085,0.302935288149439,2.30430825786497,-0.553649537605375,3.63260723411463,-1.15627383978917,-0.136509068072124,0.116823119406285,-0.46205059356265,-0.0238210468303341,-0.223569813767593,walk-rampascent
9.075,-0.351664757668509,0.755933477450635,0.818927162695632,0.223915203390054,-0.807039126419273,-1.01871258812955,-0.883287844551968,-0.0777624694983208,-0.516162915571428,0.149679527119179,0.388753342598372,0.446855288366983,-1.39100306249988,-0.139934553586264,0.255304217927543,2.32675670781801,-0.3702674737497,3.71297948037078,-1.15775015924721,-0.124078749763689,0.115044096917989,-0.447022156624145,-0.0450912435268786,-0.223017211121395,walk-rampascent
9.08,-0.434207459650933,0.845855708482292,0.987709553583933,0.367164094934998,-0.902044428128321,-0.815150405053528,-0.819431654681329,-0.0793638647120931,-0.499981752996859,0.252473657753302,0.209089308402758,0.533136080162477,-1.3667032831339,-0.0386669822510936,0.180667739286213,2.24841363321797,-0.180343205011764,3.78190821836378,-1.15143686092106,-0.103123040422212,0.109443887542204,-0.399460096676731,-0.0604166261599192,-0.214825313659356,walk-rampascent
9.085,-0.511208703262755,0.919467844169383,1.10641224243216,0.580614650337474,-1.16114190625771,-0.510694295792902,-0.75583121383454,-0.0960728009158586,-0.474076390837361,0.554563028052147,0.0660177809901559,0.619518578080749,-1.32378656085253,0.0301271147280093,0.184791900341287,2.1499685986844,-0.0550805247539839,3.76557138718656,-1.12917568393471,-0.0990749052952562,0.106115522956887,-0.366413166686925,-0.0679549405218544,-0.210501595231349,walk-rampascent
9.09,-0.542984330861338,1.00400377099965,1.11227158408019,0.712705412560265,-1.41644333213196,-0.242833259743357,-0.738657131141867,-0.105013078143104,-0.511530453335974,0.697172454774208,-0.0461585850707641,0.66385838579018,-1.2772279801077,0.158285502152235,0.0980371463449926,2.04630823071221,0.0281503659469155,3.62685307347322,-1.09722324163628,-0.086073885696191,0.103086700972874,-0.33781365989018,-0.0822037493815879,-0.196150924212507,walk-rampascent
9.095,-0.542523955722896,1.01384315062447,1.08917451845747,0.819862665054185,-1.71227538900107,0.102397432486003,-0.744363320129115,-0.0712060402022607,-0.547075832019869,0.913745109296297,-0.219656502794313,0.705292989099519,-1.2711053774009,0.21830381166867,0.0586367859568103,1.91495149710669,0.104897286184641,3.53882511475828,-1.05668628183745,-0.0763369774051548,0.0977347377567002,-0.322235137224197,-0.0917203152641296,-0.179738824890622,walk-rampascent
9.1,-0.517884078608603,0.985389739617795,1.02558406448577,0.84323462249141,-1.94908610664317,0.416274963154412,-0.752822562918556,-0.0077441781244301,-0.540301044745331,1.12808107997556,-0.399653080288108,0.710552686335382,-1.27577197836886,0.248833093175278,0.0438008901017199,1.86286897805475,0.146965928862424,3.47896199143666,-1.02148770971767,-0.0655920712792699,0.103173696253286,-0.315236790619742,-0.0926501438400044,-0.181913207876562,walk-rampascent
9.105,-0.470008809451489,0.922564902542426,0.944728316288434,0.795683652316879,-2.12704172553593,0.708254897350127,-0.763627608900703,0.0672785186788182,-0.479190137813774,1.22650662595034,-0.54950293490018,0.718371095244631,-1.27611759064323,0.258964232605903,0.0139003854657437,1.85111958465455,0.138519627322588,3.38987662353211,-0.969752546567353,-0.0559673996377366,0.111993398146549,-0.306155460502773,-0.0710307230730212,-0.164556127770743,walk-rampascent
9.11,-0.429405673076679,0.836619655860261,0.878721255855113,0.709832473637461,-2.26719599916203,1.01193149121049,-0.781210337401341,0.12494932634975,-0.415271830740089,1.13308309044336,-0.711554243173617,0.746016459872277,-1.27763488801594,0.23472886305554,0.0018108649190779,1.81821899398287,0.115047778878173,3.31785124991067,-0.905107345318019,-0.0606603752937509,0.118585392618205,-0.321746224311894,-0.0305295868380911,-0.15980656504928,walk-rampascent
9.115,-0.389815569642179,0.717278334379848,0.839607143011365,0.668088144387466,-2.34504630851456,1.23553409162203,-0.787057017577974,0.15328199737127,-0.386608183885049,0.843863600090522,-0.889831745618944,0.805858850256754,-1.27951315749686,0.186535448908468,-0.0265893166541384,1.75251623310431,0.0718383636476064,3.23144753801726,-0.880771997433431,-0.0585515556922999,0.13076273011144,-0.334195989236288,0.0277598613550873,-0.153860505659137,walk-rampascent
9.12,-0.370214784435759,0.607559748485889,0.840249066607324,0.692520539927002,-2.41830095857223,1.43298829687167,-0.783708925243703,0.162026337273354,-0.371086414890281,0.498580731803392,-1.03328370632222,0.876909007094016,-1.24959127113112,0.141781569815707,-0.0369303490584361,1.66664558134227,0.0217391721026994,3.1490144303878,-0.855728920135349,-0.0510012053397041,0.134946586659623,-0.316229496894433,0.0806876532918862,-0.150480940937996,walk-rampascent
9.125,-0.361428251386732,0.480090900131343,0.846759767999588,0.805017118012295,-2.5224231050871,1.63986649699516,-0.77462321987951,0.162535745045902,-0.375389750587662,0.133261547456258,-1.15859125332569,0.941158795700023,-1.20196957590154,0.0788614543257794,-0.0742785960353676,1.56021400880064,-0.0445287840360208,3.02357142751674,-0.835462357327678,-0.0546565456814262,0.143156270570405,-0.288550595983965,0.146618331864238,-0.146975907821196,walk-rampascent
9.13,-0.353174162711049,0.3967351388567,0.8498088312627,0.918601626657375,-2.61740811824573,1.7713831350502,-0.765857009591662,0.148030117230403,-0.407016279571037,-0.195584449105985,-1.36147454289877,0.966194150259983,-1.16736496370299,0.0318515356062575,-0.0946363683707944,1.46604790452481,-0.0977987263017778,2.97721581935882,-0.834164246195384,-0.0556036361760403,0.1473151263908,-0.271310415862452,0.184895254142253,-0.149837695549328,walk-rampascent
9.135,-0.32502930825229,0.339174176816155,0.83506418327948,1.0211196579554,-2.72570308516696,1.86890240230212,-0.744672170052594,0.120125730020731,-0.407770796458768,-0.366373305482555,-1.51001577485077,0.97888198999669,-1.12880206541413,-0.0095091985822112,-0.118951098466835,1.39390988723385,-0.171750088362198,2.95233451777931,-0.82511980332312,-0.0543576421075582,0.158683647821176,-0.254119593819851,0.21194615171306,-0.150009183056815,walk-rampascent
9.14,-0.311880528185555,0.308765555660769,0.823335378173453,1.08103339836923,-2.81880398401941,1.93272968206149,-0.728348587136987,0.0779509463347186,-0.39470406039151,-0.459242000067849,-1.65578890338238,0.979547485224925,-1.09545049863555,-0.0280497125620824,-0.142171687876498,1.36812320517513,-0.249645633712085,2.94319820604612,-0.820082113823653,-0.0564664959550174,0.161987045774777,-0.216390084214718,0.216149361396857,-0.145949438941989,walk-rampascent
9.145,-0.326063766481477,0.274156890492497,0.841030889340424,1.12481215675492,-2.89918550981115,1.94924001830934,-0.726448127809241,0.0637907795687341,-0.380721448213794,-0.476873549394916,-1.78428696639763,0.976659918953916,-1.0638290196732,-0.021925405755741,-0.145604950223606,1.33219605459722,-0.310241699803007,2.95038392718979,-0.82283281747956,-0.0679360266536909,0.159277461740774,-0.177922587872219,0.21817585790413,-0.124238018513263,walk-rampascent
9.15,-0.355301204131333,0.223275846910537,0.879273728142743,1.1757597824176,-2.99314969709256,1.94113855844494,-0.732452591044875,0.0402160894887893,-0.37205775079982,-0.509783852322478,-1.90781573245979,0.989070319933694,-1.03218384915957,-0.0081896414077028,-0.141925264058241,1.30575561024876,-0.357609663350083,2.93736460709152,-0.820828930352988,-0.0647209973355154,0.163086176845258,-0.139904673094981,0.211567697764975,-0.112494380888426,walk-rampascent
9.155,-0.387328481446226,0.187817641545808,0.895755481942679,1.20920531672709,-3.08310174478445,1.93122478771068,-0.737425008486458,0.013540623574639,-0.382778629387499,-0.606033072709,-2.05279835781151,1.01419796260724,-1.01296629893973,0.006862875408815,-0.133890450658471,1.29730774472179,-0.395159701216072,2.91971208197966,-0.82865935742408,-0.0745219077140363,0.165977413516187,-0.113679139245375,0.18769355871225,-0.0946980717529683,walk-rampascent
9.16,-0.418557664109515,0.164148174224776,0.89447376134366,1.2275231565284,-3.17335765129312,1.91602184811486,-0.723065551171739,-0.0054195972063923,-0.413736501266748,-0.738834666598552,-2.20430906180738,1.04848860870656,-0.992744901745748,0.0290434893925919,-0.121062680034415,1.27058507417992,-0.418155812147483,2.9277114813631,-0.840931864374916,-0.0769738777752482,0.169487697419687,-0.104176576228282,0.177125490704649,-0.0865120510255031,walk-rampascent
9.165,-0.42768888926391,0.14935046605613,0.873452017493631,1.22070002849347,-3.25711172255853,1.90319548135543,-0.702167663866619,-0.0165433994205981,-0.442236128032438,-0.910204572353836,-2.38399037216091,1.08073547523797,-0.974850218930624,0.0506023945479672,-0.110403167496969,1.22909055930349,-0.439618947482081,2.9106486255117,-0.854171859744965,-0.0761654252612292,0.173659934730973,-0.0986296287589388,0.163499059846655,-0.0797709391047261,walk-rampascent
9.17,-0.437635495549894,0.13615955906329,0.8648958619438,1.18816419478125,-3.34285057533286,1.87112336879719,-0.711860297982333,-0.0220609953762533,-0.436439873697477,-1.02647874950069,-2.53645166849948,1.10104962508982,-0.949713862656611,0.0714035019621491,-0.100122327887641,1.16890936240908,-0.444390796478942,2.89505114724651,-0.864917754294957,-0.0777923962291907,0.17967893791767,-0.108555602552039,0.161991783662003,-0.0768283286831177,walk-rampascent
9.175,-0.47229365550358,0.120800357136325,0.878927994011948,1.17859672444558,-3.41575170099504,1.85099205257228,-0.722065448262201,-0.0360635898010345,-0.416734425693738,-1.09465888116099,-2.70627577533201,1.12310055217479,-0.930386101424354,0.0872997565276228,-0.0962541334385398,1.10643071747677,-0.445112694753974,2.86458555451347,-0.873840081675505,-0.0780556486072655,0.182250602358468,-0.110136344862603,0.149673694027625,-0.0623924551545331,walk-rampascent
9.18,-0.538641907163546,0.109779204322317,0.895151936528396,1.22082848825929,-3.53541546858923,1.84425898386487,-0.727139857935573,-0.0581799680997271,-0.411751625594049,-1.13196554040667,-2.80767942420647,1.1340755699494,-0.915800093548668,0.106149646782688,-0.0990943651090396,1.0101519810656,-0.449426532893294,2.81674672337012,-0.897892929403877,-0.0871832307020543,0.184380615292062,-0.129895722297159,0.146115560396811,-0.0586971806663769,walk-rampascent
9.185,-0.579471668150419,0.100312056136807,0.877802103263817,1.25315280921114,-3.60840157331575,1.8450577065829,-0.734081793605886,-0.0965910270954143,-0.462309253902967,-1.21689379822533,-2.87522518265659,1.13054509992676,-0.910493378906262,0.121809854334833,-0.0992488555334292,0.886889899345324,-0.454537469059715,2.76550300958692,-0.912143968758776,-0.0926878539493325,0.194889797309433,-0.163045340537817,0.160335805651662,-0.0573786557520409,walk-rampascent
9.19,-0.590275654961584,0.107813039254863,0.839768877738786,1.25317860270743,-3.68129312571197,1.85367361635377,-0.750019245263087,-0.139276395914383,-0.496447302218135,-1.26718094520996,-2.99455654535252,1.11831079394147,-0.905879383073958,0.131153565985126,-0.10718455847874,0.77785208968505,-0.471380993152772,2.69348890892844,-0.919396791680974,-0.094551548401655,0.190815547995747,-0.203292413751934,0.159677102382953,-0.0525713136024936,walk-rampascent
9.195,-0.605760157369589,0.12860327129903,0.811157130819476,1.21120203871157,-3.71620412655815,1.86611327671981,-0.757974874493651,-0.160809027637042,-0.483849275953289,-1.23595832840361,-3.12852339644631,1.10676635707873,-0.903739757312324,0.127454009818526,-0.119538654617554,0.669193045356863,-0.489896547810734,2.62875661010742,-0.932394224865097,-0.0976271966114643,0.191081311530407,-0.244957210515016,0.161977926695063,-0.0493739846911461,walk-rampascent
9.2,-0.622686280961674,0.140507679156324,0.794868916230114,1.14452844246999,-3.73451381500414,1.89072120705929,-0.767026459980681,-0.166267102367036,-0.478207033162914,-1.16571944505694,-3.20646083224725,1.10062510802324,-0.894408117294455,0.119795349097355,-0.1376731030084,0.581861639476024,-0.501918400763614,2.56618828404436,-0.945093325326358,-0.103359649202833,0.187186153810336,-0.275466329592138,0.156559717502396,-0.05135969960695,walk-rampascent
9.205,-0.652758870703288,0.13053496012411,0.781171991292223,1.12388805582446,-3.74363746010711,1.91669591233808,-0.778220091041954,-0.193857340934859,-0.491496629811557,-1.11591177845416,-3.29118611673781,1.1067345040102,-0.88605929234786,0.115851370436941,-0.155853268740571,0.517639556934444,-0.511863103138873,2.5028778346715,-0.957161413293645,-0.107201102507018,0.178846513599266,-0.319272009404441,0.154593075226624,-0.0594153993389037,walk-rampascent
9.21,-0.676626863686313,0.118136190505019,0.777149565459676,1.08459498089089,-3.73905846484446,1.96145706468549,-0.788027307051104,-0.231012890598686,-0.507408237302045,-1.10980871243133,-3.3475399011963,1.12623142114121,-0.869371351840983,0.111731729926133,-0.176436904074977,0.465677577273176,-0.524403248721542,2.43917739564908,-0.963273516273862,-0.106041487073225,0.175327710406297,-0.330771844232556,0.141801088792393,-0.0659168067368763,walk-rampascent
9.215,-0.68803504352849,0.109792763250082,0.783281041710489,1.06687483753985,-3.72739801775425,2.000587174262,-0.793957892820018,-0.262176687173684,-0.545392813559594,-1.10142428965206,-3.42462763793358,1.13989471035169,-0.845680074040126,0.107413630062162,-0.191970466888703,0.436850602311358,-0.538070420781679,2.37469561751721,-0.971310892982547,-0.111685289938324,0.168840704750145,-0.342532162301958,0.118865468233501,-0.0758482637948855,walk-rampascent
9.22,-0.718123865092647,0.0906314842242187,0.812391172680815,1.09790935870891,-3.72001162231802,2.06096408504209,-0.794119535248059,-0.27117596860924,-0.56217995967372,-1.00642915825982,-3.51600536942071,1.15637948681517,-0.822404481007526,0.10627678934464,-0.200386067854736,0.404838147629727,-0.562854098957752,2.29712278609791,-0.979036753393642,-0.114782101613304,0.168144611889631,-0.350468402881375,0.119970214238279,-0.0764236177896382,walk-rampascent
9.225,-0.736721498065734,0.057806854002505,0.828516538588852,1.14132492859542,-3.70916892699604,2.09060715841309,-0.790503309513891,-0.274058926405191,-0.558749579614897,-0.885641548911526,-3.53543368691933,1.1777935602698,-0.787279019151792,0.0994184307238217,-0.202477878015365,0.389389441463382,-0.574474424511941,2.24614262301299,-0.987815893546324,-0.132427134472618,0.162958938736474,-0.357810016284998,0.0788664554819863,-0.0947201907738084,walk-rampascent
9.23,-0.75673039010387,0.0324631373379097,0.822474116967132,1.1836446897921,-3.71023637865026,2.12678366607292,-0.783258994541498,-0.291031473553816,-0.549495100129868,-0.782849198559263,-3.58250618938323,1.20080024085083,-0.743237343279733,0.100816815323633,-0.196143042996252,0.375350091599052,-0.578268752108531,2.15626303680804,-0.99171805058407,-0.141632971523855,0.163756833399229,-0.355846399292716,0.0540424657583338,-0.0996849934383768,walk-rampascent
9.235,-0.755510642121326,0.0170737464917213,0.790794330809774,1.21466360718621,-3.69763509709168,2.14281190064833,-0.77310940304594,-0.298514396357429,-0.546506349743842,-0.662549164679084,-3.65319890539027,1.20559167203671,-0.696209355657572,0.103378904343679,-0.184496140864836,0.36848230246402,-0.569028104411327,2.07368726828665,-0.994702372795474,-0.152964564868084,0.168827701620543,-0.349596685649729,0.0264940775640589,-0.106522053635874,walk-rampascent
9.24,-0.761127017052026,0.0050253173689028,0.767871094976152,1.22563218356536,-3.67069014081072,2.14102752719135,-0.774018380657947,-0.274237655784894,-0.53743004551465,-0.555403816965411,-3.68666542219087,1.21019018749853,-0.662231299331318,0.100986374766931,-0.17394750160171,0.346129854895628,-0.546767633854751,2.01250108420731,-0.992668343624789,-0.156394410972812,0.17737997033166,-0.346974568924149,0.0144702541062216,-0.11321905903727,walk-rampascent
9.245,-0.756247268689899,-0.0117372661678304,0.769373040166,1.1986026636604,-3.62584152141407,2.13279075048579,-0.777115756365517,-0.240672911077871,-0.5228597643227,-0.444992081511541,-3.72143005527566,1.2276308072039,-0.613722794520508,0.0937001508105667,-0.164105834504048,0.303703359590454,-0.515476563991413,1.96245299099215,-0.991891562901758,-0.160698455341448,0.177232409120826,-0.335986506181187,0.0011228423228785,-0.11775490512893,walk-rampascent
9.25,-0.760257892758411,-0.0282126146592248,0.768737666475152,1.16705450756601,-3.5718849457511,2.11461158662468,-0.772478709101881,-0.224387924879292,-0.52812330260995,-0.419255704083274,-3.74286228893077,1.24473760736375,-0.581312993181644,0.102466597040727,-0.156721411800664,0.233662142896821,-0.479359614666556,1.89862948545157,-0.995284733751493,-0.162638843883725,0.182373472406417,-0.326574994526754,-0.0085504204105027,-0.12480233198174,walk-rampascent
9.255,-0.759023578793269,-0.0369043526372508,0.768595936340476,1.14283959849268,-3.53337062572822,2.09738966218427,-0.767904864775497,-0.21070192866631,-0.529643504757956,-0.45868595813483,-3.76927797268753,1.26556905648957,-0.558948238749821,0.1072395519923,-0.150191228296492,0.161088804515189,-0.458948366564596,1.86521475382982,-0.993124268271213,-0.159725084551775,0.186774875867893,-0.311622690587613,-0.0238219248699028,-0.136335760456354,walk-rampascent
9.26,-0.747000953857605,-0.0558209324513594,0.769222867383345,1.09910307293848,-3.46998323467117,2.06886909940024,-0.778173014881532,-0.20092142224283,-0.552886035170779,-0.510808854611348,-3.79874411945735,1.27957796041305,-0.537483042780928,0.113089578961099,-0.148826271733131,0.0720049308605005,-0.424759097058507,1.84138785347424,-0.981649603389723,-0.14924965319033,0.189164451436687,-0.293323161441493,-0.0329716929593773,-0.142498628600366,walk-rampascent
9.265,-0.746123344426731,-0.0689361864108856,0.777189374718911,1.07170222679783,-3.40511502140766,2.03899801450827,-0.78677017066276,-0.201827046310049,-0.56542445464225,-0.58391032193531,-3.83118834820595,1.29238040507179,-0.514250619896331,0.129071912139393,-0.143195913623043,-0.0070755106281198,-0.409638772398911,1.81742355093027,-0.980499897976267,-0.137340651792645,0.199638380157595,-0.283420301699469,-0.0288653757140699,-0.144651850358183,walk-rampascent
9.27,-0.757672511933354,-0.085747001537138,0.797258932263581,1.03234158734861,-3.34554538284747,1.99279327980385,-0.81280040473029,-0.199648879863775,-0.558754963505971,-0.608660407144535,-3.88481387584948,1.30267458912934,-0.510824565449472,0.146891155066894,-0.139302914706699,-0.073801578450231,-0.40137925336966,1.77430257151817,-0.972433579477947,-0.121776864669578,0.210181286187894,-0.277032464742661,-0.0230700130708871,-0.136449484189385,walk-rampascent
9.275,-0.781856167995907,-0.103564876118043,0.815525936620372,1.0251990753146,-3.29243084409397,1.93266410951565,-0.828003232416096,-0.192443292591598,-0.554967782021244,-0.586312373875515,-3.89724786526402,1.31186913925228,-0.517664268919484,0.174568886615606,-0.107835081126451,-0.123790294133563,-0.402879579014225,1.70761654771716,-0.965611163031256,-0.109376476017557,0.217333636475196,-0.278527424487221,-0.027678407728672,-0.122912442174845,walk-rampascent
9.28,-0.812106127548191,-0.104196724199771,0.817551135635618,1.02895125694225,-3.24980772605301,1.86266683626842,-0.835801900217844,-0.184096943672003,-0.56346973531833,-0.53499370557132,-3.91434504000062,1.30771279029711,-0.512052801237159,0.198307036504903,-0.0886659824050047,-0.189639097094528,-0.404627336486527,1.64273018175623,-0.966870697445416,-0.0982129062982708,0.223222228485892,-0.283728954397059,-0.0298049659542323,-0.114146936281339,walk-rampascent
9.285,-0.829089580777448,-0.0778767719772718,0.80833850355036,1.00966196129363,-3.20918243271039,1.78343962840674,-0.840838773360891,-0.179044880464349,-0.561921383662974,-0.487427842887393,-3.92580286246567,1.29878673727602,-0.514506187146582,0.215313903262542,-0.0729004045602361,-0.247663761850967,-0.399120879356122,1.57508401117251,-0.946997702490435,-0.0914336767198807,0.229868946463971,-0.293206435450445,-0.0441443452561338,-0.0954125952033667,walk-rampascent
9.29,-0.840611532625955,-0.0355986470269764,0.779897834847139,0.972684975917599,-3.14529426442952,1.71942572079818,-0.844412112172282,-0.171293101862268,-0.563796413686212,-0.477781473357863,-3.93383349052515,1.29461634159088,-0.528972663151643,0.229572528241729,-0.060658041820807,-0.310198166740713,-0.386543335306468,1.51008546621547,-0.945749502093334,-0.0853432033955971,0.238842961599656,-0.2971183360698,-0.0515280069802021,-0.0800096585814444,walk-rampascent
9.295,-0.857389293990622,-0.010904798951045,0.776084469342749,0.93575579027692,-3.0918200871261,1.68301575844764,-0.845494449974821,-0.161760028813005,-0.564329356042381,-0.479484513548705,-3.926638735702,1.29305534959535,-0.530705748121107,0.237971285973638,-0.0573495327044777,-0.367252370776677,-0.378827197467361,1.46921678334935,-0.936175210306275,-0.0758838149441496,0.243952122819475,-0.303150943067328,-0.0562725014620383,-0.0618568207983973,walk-rampascent
9.3,-0.875036986127886,0.0347692059237224,0.756085635561225,0.904248386133215,-3.03333840619267,1.67310843953236,-0.840795416744333,-0.145659067815838,-0.568645117421385,-0.474898452716985,-3.92111691017105,1.2834019488089,-0.512002128884936,0.247513879831953,-0.0429685544792311,-0.44512619051048,-0.371929184829612,1.40760898555434,-0.929249090733345,-0.0681902129509069,0.244922133166267,-0.311471066374826,-0.0568339856916513,-0.0395047419640594,walk-rampascent
9.305,-0.876342962263394,0.078676362724065,0.747659920788909,0.871333383157335,-2.97070298334844,1.69599280880187,-0.840958813893228,-0.144454168984151,-0.568928527271746,-0.53711231324672,-3.91092360555331,1.27270703396003,-0.497014754659564,0.25434300286962,-0.0372941509112482,-0.511671568001834,-0.371174465739401,1.32151871380335,-0.933443693261322,-0.0628397422492402,0.25326440238981,-0.317786642918462,-0.06031902345228,-0.0206489304436324,walk-rampascent
9.31,-0.885835388371531,0.139350528648919,0.744292352518885,0.808591345679755,-2.86901784729957,1.75727312952281,-0.843336866901475,-0.159805704503055,-0.584260250766847,-0.648801055935182,-3.91217042305059,1.25384988469331,-0.493296753203812,0.270422428079883,-0.0153217323118802,-0.566828338845203,-0.366942198267577,1.2337909267033,-0.934128870181532,-0.0565602354071692,0.255479278074226,-0.321464352002771,-0.0712816736016569,0.0047474301701612,walk-rampascent
9.315,-0.90735794233531,0.13920855310011,0.768860792959918,0.776700865386864,-2.78774377278902,1.82835640789943,-0.849106649882837,-0.161170994597425,-0.595108337988836,-0.740732942473677,-3.91414847635572,1.23799779987938,-0.488951876340639,0.277363154495973,-0.0083821417779808,-0.644679574181598,-0.383540643553338,1.14768194614429,-0.921765919543388,-0.0508540801240298,0.252127367499699,-0.32446008137877,-0.0767646377144348,0.0273174105204459,walk-rampascent
9.32,-0.962455766335311,0.109924810124497,0.80870098653755,0.768191124441236,-2.71528452759671,1.93470299203673,-0.855672462391886,-0.145072796578909,-0.626634667506399,-0.772242019831173,-3.89505403137381,1.1985138390622,-0.481759333442265,0.282478737697193,0.0121289717764513,-0.694514762898179,-0.412484796666897,1.06718566562789,-0.910673978109646,-0.0474127763006121,0.244325050427909,-0.335196723685344,-0.0639621298718757,0.0508995103370626,walk-rampascent
9.325,-1.00004987103294,0.114576360832486,0.811922862341494,0.774533911213572,-2.6589716724321,2.03153628993213,-0.861700756406831,-0.135692294366138,-0.634307621998562,-0.772576388305254,-3.87520103254086,1.16203768597536,-0.489689880500813,0.289871297537399,0.041288449434567,-0.734878664222966,-0.448011452652104,0.98176529496873,-0.895725377042111,-0.0469434546100307,0.239352530454304,-0.347396949681044,-0.0562711699345496,0.078241521891452,walk-rampascent
9.33,-1.0210064316208,0.123416479622045,0.791163433733717,0.76218262882593,-2.6028722606397,2.12488019884976,-0.868762213976524,-0.128586686906746,-0.622439558223947,-0.768879135039995,-3.83073288204759,1.08466948909054,-0.482891772220491,0.309999146368671,0.110337363626808,-0.797537096638208,-0.501044266329418,0.855040442860577,-0.89149511009235,-0.0462485390174218,0.230648895462255,-0.357625124657646,-0.0447209126437536,0.113466287777922,walk-rampascent
9.335,-1.04166663937221,0.125907605194387,0.754890536893039,0.688873073806103,-2.54538994435685,2.19452262162038,-0.867613438573957,-0.123244301625221,-0.622960923085687,-0.797830439425171,-3.7949360849481,1.02442859199797,-0.509237374405497,0.296821285724528,0.117873197323333,-0.564645525854746,-0.445530947924345,0.765049236129815,-0.87916341434351,-0.047153306038346,0.226701712651797,-0.365489945928992,-0.0366917236148622,0.138198338816955,walk-rampascent
9.34,-1.04328719884378,0.0960699661639013,0.703388791631771,0.547535478799289,-2.45865639471524,2.27154658521026,-0.871903893238338,-0.10993802513054,-0.626539941144888,-0.902750107245979,-3.75987987227691,0.953183843958432,-0.502283835576148,0.310542767881832,0.122602868906521,-0.431013343729328,-0.447266356228111,0.676299212374042,-0.871900560509793,-0.0533045934984205,0.223412883085693,-0.374513714514526,-0.0397313491608875,0.166651034332844,walk-rampascent
9.345,-1.03777416730147,0.076048858601773,0.668365640143244,0.403357315211112,-2.35837046551639,2.3144515345576,-0.882944766750186,-0.0841054560278492,-0.611310276499267,-1.0358739396612,-3.70923821338266,0.884281250291676,-0.483421057706481,0.317736038661322,0.132566963832724,-0.32352134957,-0.451738353176629,0.583917444550409,-0.859639382966787,-0.0549018984493956,0.221018968086141,-0.383197684449153,-0.0392234115176969,0.182934739755204,walk-rampascent
9.35,-1.02869212669998,0.0402584574930881,0.617495574877665,0.249651674020138,-2.23478603375406,2.35153006603346,-0.893504037704163,-0.0600004724445907,-0.597234446515139,-1.16410841175098,-3.67005435932443,0.83335043358343,-0.492588311424122,0.340138004449327,0.14963380461316,-0.163297722594275,-0.437479324463338,0.484072829135414,-0.869798620046237,-0.0531915038740789,0.224577074247013,-0.389670364189522,-0.0488437453223369,0.208851768471018,walk-rampascent
9.355,-1.02116404791556,-0.000380622874437,0.594017375302856,0.114233837662422,-2.1082949857006,2.37077300806609,-0.907168115624801,-0.0468364917315783,-0.600310116179351,-1.40069303911337,-3.6163803182313,0.777512187851841,-0.495029817909482,0.353605497332977,0.133687106706999,-0.0225423146836153,-0.446524719529899,0.447105784551448,-0.873557931872396,-0.0595241534072177,0.223113514359102,-0.388735976453461,-0.0723411848968467,0.239972207883804,walk-rampascent
9.36,-1.04532979793806,-0.054608786992477,0.590623118034767,-0.0303097450749257,-1.94835434201444,2.37291574478149,-0.916932393361,-0.0578960743526506,-0.611103915641749,-1.5952530487371,-3.61362535558559,0.723934144958083,-0.350913732321326,0.336220902241241,0.100485583090131,-0.11745097638962,-0.341740435151316,0.233283085756551,-0.870531389239273,-0.0655531961493246,0.217069968505894,-0.404527822065458,-0.0867705707392227,0.262131778327849,walk-rampascent
9.365,-1.08460147629238,-0.0931700158614852,0.593457645812772,-0.139195245943436,-1.81777748745566,2.35428496584325,-0.935115099485301,-0.0776455081155317,-0.618638632916121,-1.73742367112441,-3.53685775970281,0.661257652865536,-0.481016618435554,0.408217439323601,0.216208341249582,0.199842404652314,-0.380697751873854,-0.205827359685216,-0.881534840914224,-0.0737179706282142,0.209686771181114,-0.423476593834802,-0.0908955399145657,0.28045883830193,walk-rampascent
9.37,-1.11431448494501,-0.108328070517137,0.581398325456868,-0.249415121622671,-1.68115908911202,2.32089866152642,-0.941850834618049,-0.0980467633206104,-0.632905082466933,-1.81574569017912,-3.46939588702508,0.602096127833006,-0.608729734237582,0.406275757987445,0.218135659778465,0.522307623260876,-0.359176528425528,-0.40464287127879,-0.894031079572676,-0.0746593121622591,0.201217085222754,-0.441781636885133,-0.102722829486592,0.301296044461434,walk-rampascent
9.375,-1.13412878886169,-0.112077250857059,0.5742315849537,-0.35931950116128,-1.54019921682806,2.26871152008931,-0.950377753252312,-0.122272258758998,-0.665762915584071,-1.85828542819126,-3.42288260397009,0.52339296205635,-0.653832736487654,0.439434193792815,0.218921992019198,0.7429925596251,-0.382685957468311,-0.287358905204558,-0.905770502549855,-0.0705570447837954,0.194904526482867,-0.463260346867274,-0.117922751656936,0.316523589191197,walk-rampascent
9.38,-1.16771831624438,-0.139274097295928,0.592127108513071,-0.45079319714585,-1.41629611402675,2.21013492916951,-0.952801384613068,-0.130065752631022,-0.664024044330847,-1.80491679494967,-3.37594834105547,0.454168731658023,-0.681647189404267,0.49008658101444,0.246349227271875,0.877352103647224,-0.403489801946892,-0.145689504994844,-0.91416554865249,-0.071668391544648,0.185501740525259,-0.480177344887171,-0.133537705885371,0.330588538551131,walk-rampascent
9.385,-1.22133256802916,-0.165997248846389,0.619509945740748,-0.521322072928731,-1.30289415775865,2.13412199295425,-0.950342066448652,-0.139373045079526,-0.651790577427201,-1.72562852222924,-3.28865016586238,0.407191636492141,-0.540471968375299,0.498483498621553,0.230424019611772,1.03702576918971,-0.402061430136745,-0.109171667117886,-0.925813695410096,-0.0686730575236896,0.184145859666466,-0.487303100544116,-0.141713590142587,0.338367125642456,walk-rampascent
9.39,-1.25724784227984,-0.171160931156618,0.636691046042121,-0.554720651336256,-1.22710141474887,2.06976016477441,-0.946536003631806,-0.141522380280825,-0.64141714125846,-1.64040208752025,-3.1975607673066,0.344753531795057,-0.620890242763891,0.522197333460293,0.23459525742405,1.18443509498334,-0.300500696276056,-0.170853916871896,-0.932558304293694,-0.0676248310672784,0.181205542915798,-0.4866624013002,-0.14366867394391,0.34919211268425,walk-rampascent
9.395,-1.29007667450969,-0.168113107562459,0.650967859073338,-0.590658230809758,-1.16912398432142,1.98882301451643,-0.934736245316203,-0.142956223222378,-0.637404616403017,-1.57199053149584,-3.08249919428036,0.297766544231333,-0.664862394791509,0.539890755088072,0.231416823232157,1.27493873387808,-0.275964333066034,-0.0488936814094958,-0.948202364215218,-0.0642254582015856,0.1823844931102,-0.471000100732924,-0.139825551810423,0.353603437183528,walk-rampascent
9.4,-1.31464540087988,-0.169659671473343,0.667372372196567,-0.598280491984947,-1.13686183480266,1.92987477629269,-0.927607626455829,-0.134449755348159,-0.640521302936628,-1.48778132993919,-2.99029507085373,0.249060200209617,-0.703754765518201,0.537596339519291,0.225508277006729,1.43289321449467,-0.202278479761305,0.150930104859643,-0.968037261223489,-0.068329522684711,0.192722139650276,-0.427377287537251,-0.13787058258321,0.357504305598476,walk-rampascent
9.405,-1.34182113325116,-0.173256076386443,0.699508327208108,-0.543037202798946,-1.11344812550862,1.82919090097571,-0.922548852247351,-0.119713361149175,-0.607593704715136,-1.33731390477366,-2.85316678952788,0.204286596435726,-0.750068552765976,0.571050301062013,0.202700714972276,1.48864373228071,-0.171967313209673,0.325243315023577,-0.983268033495606,-0.0717668770557373,0.20188150135217,-0.383500627423263,-0.142080336050008,0.355300575494766,walk-rampascent
9.41,-1.34526328894258,-0.192367726748806,0.6889932711545,-0.449181066077742,-1.12902173727385,1.74699621180582,-0.922172402676705,-0.119748577833162,-0.612433318940745,-1.31132692537306,-2.71159746781558,0.177814550661759,-0.713732131992785,0.566723236429743,0.166635294885646,1.65575151896721,-0.114398005392734,0.540853314952577,-1.00187888068844,-0.0787948143089999,0.209290648727846,-0.328126947743543,-0.145406418212721,0.3530007647975,walk-rampascent
9.415,-1.33198377941905,-0.212253842147953,0.637291722163023,-0.35738501934505,-1.15276813513786,1.66789441174087,-0.911740167410239,-0.130710127141159,-0.635979269217997,-1.31865994356898,-2.57684174836757,0.145203473498635,-0.699167078818745,0.575034818086309,0.127456829929368,1.7687209591656,-0.0456924431736319,0.62772443680694,-1.01016884903463,-0.0957698655462479,0.2178646766238,-0.283851976202733,-0.136404638929057,0.344054583746226,walk-rampascent
9.42,-1.2767287569631,-0.226933846765689,0.56013237083628,-0.29048539196375,-1.15113041544488,1.59141504940743,-0.889770209370333,-0.132018049929647,-0.633661282099586,-1.28975918956014,-2.45569903376392,0.0967988529041741,-0.695549860328131,0.584655495511067,0.0856769181904946,1.8381462859096,0.0455085852164009,0.702234724140358,-1.02927306140653,-0.10317801823847,0.232762249803049,-0.254341353910134,-0.115114185550386,0.335403689883963,walk-rampascent
9.425,-1.22113802379763,-0.233927801362171,0.491685880311468,-0.257021647312584,-1.1127838752751,1.51228910901987,-0.885048578595,-0.121470234300416,-0.607645239037555,-1.22499794293199,-2.34531022142271,0.0570982423284513,-0.707038973660784,0.585940638049723,0.0415504777273467,1.86698652499027,0.114384722142701,0.732140795412636,-1.04665127848024,-0.122589138962421,0.245528594445518,-0.227942187298455,-0.0964871730700338,0.321789669413685,walk-rampascent
9.43,-1.18222514633971,-0.228750210125125,0.441324221177955,-0.249325763778642,-1.04093674900452,1.41551675523023,-0.878839679698817,-0.116332727652846,-0.546126086030206,-1.10647079226061,-2.20463983264117,0.027531639954087,-0.683313999270228,0.588477411140203,0.0139234982353345,1.79984943934262,0.193711870821387,0.722297773985633,-1.05928539102327,-0.126853993613808,0.258579313157929,-0.214186679232537,-0.0944751751673804,0.316547523796382,walk-rampascent
