Header,foot_Accel_X,foot_Accel_Y,foot_Accel_Z,foot_Gyro_X,foot_Gyro_Y,foot_Gyro_Z,shank_Accel_X,shank_Accel_Y,shank_Accel_Z,shank_Gyro_X,shank_Gyro_Y,shank_Gyro_Z,thigh_Accel_X,thigh_Accel_Y,thigh_Accel_Z,thigh_Gyro_X,thigh_Gyro_Y,thigh_Gyro_Z,trunk_Accel_X,trunk_Accel_Y,trunk_Accel_Z,trunk_Gyro_X,trunk_Gyro_Y,trunk_Gyro_Z,Label
11.06,-0.399011991209052,0.295800889105907,0.861961589517252,0.0097217507130225,0.0412875130048663,0.0092628914862871,-0.978973492265114,0.0435508383286591,-0.0934556967317496,-0.102291256729987,0.240995995490472,0.0297055132687092,-0.972314011247085,-0.0583466051815682,0.0091902759862477,-0.0051760852338152,-0.0526677175126233,-0.11208282782952,-0.983915630128216,0.0719511830099246,0.148615554955796,0.373099490525051,0.0189364563469075,0.193285935995299,idle
11.065,-0.397529333174393,0.294606348932611,0.86278839140776,0.0066944811956196,0.0438102366411399,0.0092628914862871,-0.979201938163136,0.0443663792253017,-0.0947727146705152,-0.107843985525178,0.246043927960179,0.0297055132687092,-0.97723098986988,-0.0629698612031416,0.0084481852670453,-0.0112336057367201,-0.0536773040065646,-0.118140349871682,-0.981804858911886,0.0757741834187828,0.141073474504181,0.376128494879644,0.0219654560833653,0.194295602060993,idle
11.07,-0.396375904913148,0.293611404506456,0.863114073608505,0.0018754017979713,0.046498293063965,0.0093913922730176,-0.979597556592263,0.044931078835528,-0.0960327253657279,-0.113100753573822,0.251470303060673,0.0294929017945354,-0.981974599104932,-0.0678651612385888,0.0076908093359165,-0.0177157701615088,-0.0548012386585503,-0.124535367255507,-0.979957802903716,0.0796640783455317,0.133658151318713,0.379017502069473,0.0256684572962368,0.195394268835637,idle
11.075,-0.398319053526325,0.295167935597229,0.861221357393316,-0.008456788693411,0.0481870048104684,0.0096891515135248,-0.982468600422107,0.042462888187811,-0.0964248191861574,-0.113845810463311,0.259278029203415,0.0291138032255973,-0.986170660954927,-0.0749594146917738,0.0057906708284028,-0.0313628505676979,-0.0563830971020461,-0.133268120244576,-0.982483954199875,0.0839347506565161,0.129827097742735,0.380913933756153,0.0414112227772341,0.198018063837235,idle
11.08,-0.399514481320663,0.297701256815418,0.863440814452818,0.0034709026421192,0.0441651215476234,0.0102191227458598,-0.982325476134002,0.0384977560751562,-0.0957937913553269,-0.117898824040141,0.262781165176711,0.0319693461634148,-0.996367961262665,-0.0776050404572588,0.0017359760838163,-0.0381807641443466,-0.0552812295239219,-0.135007188551048,-0.98353946328297,0.0819726705238808,0.130600794881341,0.389443763795694,0.0524179164657459,0.200781340103712,idle
11.085,-0.399880857293838,0.288676031964323,0.864087177444769,0.004724604372876,0.0447482617147126,0.0095485613599701,-0.982410750378524,0.0343801843427473,-0.0909205559015028,-0.129961394784546,0.268542158178005,0.0277715485067107,-1.0037030550216,-0.0836815882709853,0.0003356958017928,-0.0426306295719089,-0.0568739820334673,-0.134200780739993,-0.984872789757847,0.0842726980468086,0.131219644310315,0.40048263178691,0.0598468344367872,0.199578840047369,idle
11.09,-0.395746772075427,0.292803850947446,0.858397562818413,0.0075964983552694,0.04842447527825,0.0150387772720162,-0.985955411458875,0.0237043995950998,-0.0959383685757125,-0.133763253688812,0.277912734135214,0.0249888383825262,-1.0118540996734,-0.0941492018532819,-0.0045934998219178,-0.057630063802407,-0.0632744778874114,-0.126737838242376,-0.991800321271409,0.0891600842871202,0.129275519194641,0.402449266194681,0.0764583903949351,0.202149628341065,idle
11.095,-0.398976615002699,0.288758914019946,0.849482253341296,0.0160508327443383,0.0610001936148333,0.0172742585099836,-0.980192940101547,0.0181687267602155,-0.097716057266431,-0.130920156206322,0.280994525580999,0.0374353884049786,-1.01492233550918,-0.0958328049332228,-0.0061841126257467,-0.0667417792177763,-0.065238249821574,-0.116473076245268,-0.995442098243953,0.0894602191907527,0.126383921187723,0.402667086431755,0.0817696727615094,0.19454133736079,idle
11.1,-0.401154803791043,0.287053069213619,0.848575940023323,0.0435725589837667,0.0675552475649326,0.0145287390507676,-0.980636675713935,0.0114184074214097,-0.104869339425055,-0.129538138329455,0.293357885516849,0.0372648817182121,-1.0134653619877,-0.096707987746999,-0.007197811888933,-0.0792261182776162,-0.073419901666982,-0.1082192749333,-0.999953342978492,0.091224305549195,0.122435559002909,0.386259081339562,0.0868190418850797,0.188827319005559,idle
11.105,-0.405972621341714,0.283955727697573,0.85128265420446,0.0634271758290803,0.0717683732509613,0.0153713654726744,-0.978713126753063,0.0137188142836366,-0.11491384407676,-0.120783900142738,0.295379565001128,0.0335386929334232,-1.01252345298453,-0.0959229954220632,-0.0056934647889471,-0.0816812515258789,-0.0757782897933611,-0.0981085212523755,-0.994466990263897,0.094136663180491,0.111381036431198,0.351801620330584,0.108072197594821,0.180625065272483,idle
11.11,-0.400543373645492,0.286572001540093,0.85591860969749,0.0804876397401381,0.0724173027515101,0.0171658245712559,-0.981998518251045,0.0148622276375765,-0.118078389587147,-0.108458690498835,0.297708517045205,0.0379783892480407,-1.00926627245383,-0.094584713339111,-0.0061235410327579,-0.0901005650295969,-0.076598506043307,-0.0897443466189382,-0.987226506929117,0.106884637028893,0.0922297687992739,0.30214709613539,0.134147939662577,0.179376572370529,idle
11.115,-0.398162540642639,0.290665614811995,0.854129323645053,0.0870041825725906,0.075842334770211,0.0165856757524075,-0.985135416702787,0.0244304891990558,-0.123432009546557,-0.0895671288461576,0.300138395190775,0.0392320687805843,-1.00056509041186,-0.0934767507503041,-0.0029863928156542,-0.10307308582156,-0.0798175565334579,-0.0849171617346556,-0.9829156537965,0.111211151519352,0.0653589297367379,0.269350445016948,0.161700214911669,0.166310725379634,idle
11.12,-0.404636371603038,0.294623797307041,0.855981085038197,0.0947429247161167,0.0726995103130082,0.0193864636128061,-0.985540360102874,0.0314835415629405,-0.12615840612893,-0.0785702886565814,0.292283501628187,0.0431638830209454,-0.995568756350844,-0.0880248681648459,0.0015368744875404,-0.125901517961198,-0.0855471296945762,-0.0790133100885452,-0.975330712590259,0.126082158532409,0.0379042628123667,0.236318828053534,0.184165797438591,0.151446505211601,idle
11.125,-0.399540802421307,0.298514472681089,0.858051694102538,0.096920785917996,0.0728494912612461,0.0230797313238469,-0.984815967009851,0.046353067147594,-0.124164158358627,-0.0761786680591687,0.285593397946125,0.040700763463974,-0.991968920340502,-0.0869175567405395,0.0067349917623101,-0.140722482876581,-0.0865953431053358,-0.0800615204441938,-0.96627976013888,0.13828031392835,0.0102678742182689,0.209269104943624,0.199667516847243,0.136506536241544,idle
11.13,-0.40202637034338,0.296957688016618,0.856301355754116,0.0950869204407167,0.0774108070309915,0.0149907642579732,-0.985202423312888,0.0504481478722476,-0.122632201088125,-0.0794366311028585,0.285583254805601,0.0455875396728516,-0.993272160430418,-0.0874445323842973,0.0150685438637096,-0.15254126946083,-0.0870373661105459,-0.0835222601890564,-0.958085323616267,0.151585426138059,-0.002325621903304,0.195987925405415,0.210901288501049,0.114851397687798,idle
11.135,-0.396582309263186,0.302327002246646,0.856984078535844,0.0982728078607765,0.0695294663840462,0.0235142636388493,-0.983100215899214,0.0442684033379502,-0.12720551143989,-0.0871778168693721,0.292010403778728,0.046901554632538,-0.999105395407099,-0.0857661180484137,0.0284816286523617,-0.173325313022695,-0.0831359720711844,-0.0814719589950326,-0.940054072685141,0.168503540211108,-0.013646564105863,0.184931322674422,0.20550198878798,0.105694880651785,idle
11.14,-0.397078731925409,0.305197851565296,0.848289458761662,0.0943787895339855,0.0709679020013454,0.0262406913167384,-0.976230112920374,0.0418228411268026,-0.126253144865515,-0.101221104568033,0.295151494206733,0.0476978707737522,-1.00505380835203,-0.0865602806306381,0.0307097816619397,-0.173034665241972,-0.0832103993610061,-0.0766765754536308,-0.929632930827338,0.178329918500462,-0.0141243171837674,0.175663753841957,0.206334507330421,0.0985269272592887,idle
11.145,-0.401697938759085,0.314473495057389,0.853232262840299,0.0826659190704745,0.0686468253328311,0.029081770891642,-0.974004136400626,0.0384303574162398,-0.1220071648192,-0.107523284172152,0.293777661496177,0.0505272388293136,-1.00168502832805,-0.0861780370348234,0.0437012707300274,-0.176912974230431,-0.0827259123325348,-0.0661962218543133,-0.913566803259456,0.184634688782388,-0.0085090034712184,0.155616126950292,0.199656599021272,0.0965319082434553,idle
11.15,-0.401271344422115,0.283356376684294,0.846248286993463,0.0831893989803974,0.0616201327432986,0.0301565936641449,-0.968691365677309,0.0307005975007193,-0.12126651688156,-0.117492094732354,0.299593925476074,0.0571697212180715,-1.00559255346131,-0.0938618176366872,0.0499158733664433,-0.199574977545649,-0.0888343825936317,-0.0350359741648204,-0.901095933084068,0.193379235513937,0.0036826799672365,0.118634065087682,0.193503671926918,0.0942455291925222,idle
11.155,-0.402576953286,0.289958287785385,0.858685116107295,0.077176546778138,0.0555365406220104,0.0368397861232468,-0.967679746914052,0.0146103390675139,-0.132833641616517,-0.14582262723989,0.299593925476074,0.0643428857808883,-0.996073989083382,-0.110325182560518,0.0618183883187196,-0.21064075110499,-0.0903569936071292,-0.020153619866815,-0.889915880343722,0.192780029202849,0.0184110989052272,0.0745377101544391,0.197046521129723,0.104446848152616,idle
11.16,-0.393284776871696,0.315637049602023,0.845451370910647,0.0775896479916663,0.0533538218865724,0.0443442268542464,-0.965421741635691,0.0143821357394556,-0.129891335233183,-0.14540447441084,0.298833316535207,0.0727409733058443,-0.990780008529929,-0.122652003404125,0.0655165381319815,-0.226894183905939,-0.0972647641519883,-0.0101463264039903,-0.879057258766189,0.18961973960261,0.0391582603446948,0.0088953316558253,0.208036783261543,0.11593060661861,idle
11.165,-0.400567094628733,0.275189948834917,0.868794983151931,0.0528001384599275,0.0557505544689509,0.0467280318341292,-0.960587779042705,0.0131794354280385,-0.121228209704657,-0.135635125562074,0.293076492000826,0.0837065076980637,-0.974093416712107,-0.131394901847063,0.07328146476921,-0.240679593174923,-0.104894464347195,-0.0136462640631234,-0.866806524302263,0.192597230573778,0.0535294769534281,-0.0486313211768286,0.217726125465895,0.138592485570079,idle
11.17,-0.406252058672441,0.29601241885343,0.852171569948061,0.071820043732225,0.0361638144225,0.0549918544427297,-0.962891493287042,0.0117295209384947,-0.127810693024054,-0.134236591041126,0.290892414076376,0.088921224119946,-0.956063785009774,-0.134272679460799,0.0853937089324159,-0.232660650712402,-0.110496954773933,-0.0176609790970844,-0.855771664831515,0.186099219782773,0.0703147172932514,-0.0941411076365956,0.230834807140944,0.163574418710049,idle
11.175,-0.405588384381843,0.31757876221525,0.848193748063275,0.0672495497066508,0.0308225126313889,0.0547900905076368,-0.962338745292339,0.0210538454467911,-0.131830672864823,-0.127993577806179,0.289378936682494,0.107524331547726,-0.931431484854823,-0.139037619835122,0.0909628573592282,-0.217056866398963,-0.118155054748058,-0.0431501688683899,-0.846709785871137,0.188831157305825,0.0937354760644585,-0.130151776066784,0.248691342346958,0.195792197332961,idle
11.18,-0.404126165144738,0.282963351733077,0.858481865640524,0.0578414255583649,0.029702624769347,0.0599422868709287,-0.955954836267048,0.0282710461449085,-0.134260479324388,-0.138810995080724,0.297108505790259,0.123856459240188,-0.906307228207344,-0.151055255129708,0.0904074732209688,-0.163031025268064,-0.119633440735364,-0.0660595632526963,-0.847385179729864,0.195198984384823,0.113140421589806,-0.138980984687805,0.263406092397755,0.214092410533108,idle
11.185,-0.410558088764297,0.296093559123007,0.858620958282344,0.0583276373919039,0.0294440920084816,0.0751510146395599,-0.951543788663486,0.0280763804796211,-0.137289614061365,-0.159660850120821,0.313613267337373,0.133755221325122,-0.888404150261181,-0.165001714395901,0.0919852381390503,-0.111468101941736,-0.117569617600325,-0.102441919591643,-0.855777626091302,0.202113651490758,0.137758547476162,-0.142940841033684,0.274143189813198,0.219229035687571,idle
11.19,-0.397242160467306,0.295039089263477,0.860817535623492,0.0622452487445368,0.0305582699752946,0.0812674443195112,-0.950532284258295,0.031541809077919,-0.13146633813311,-0.189704112679694,0.324815519604043,0.143901803306562,-0.872994774141602,-0.178845914134468,0.0906073682053873,-0.0877839808070635,-0.110575330139985,-0.127857236492554,-0.863233575268096,0.200235858092755,0.1536854747924,-0.147062664643884,0.283821569888109,0.225017320704812,idle
11.195,-0.396171584154164,0.275828952790674,0.875841606632373,0.0663601084716873,0.0316903504753518,0.0883450990106459,-0.961609773456891,0.0255395428483793,-0.14635692350906,-0.230524871814121,0.32340052097157,0.146999162165701,-0.877215789666946,-0.188995081256077,0.0961854349464379,-0.0295293843074688,-0.104670859536313,-0.17816837919516,-0.889051647917477,0.207398842939152,0.18384270071576,-0.181733567700414,0.312561845822099,0.238826762624605,idle
11.2,-0.39625285671712,0.29699823823752,0.872648737402562,0.081853535392336,0.0371932140480927,0.0956354855656843,-0.97710798453379,0.0274575208379179,-0.149269218551193,-0.266383313950686,0.329634568299956,0.142603137884431,-0.8908506270389,-0.196592153421782,0.0930966291767407,-0.0029585344654915,-0.0850930865072148,-0.199659452852006,-0.923868780439365,0.203530632379728,0.193753164378598,-0.204638414564463,0.321272503894812,0.249013155698776,idle
11.205,-0.399372884993775,0.293820793715009,0.883961541556613,0.0776180877312497,0.0435410703544989,0.0954231650881434,-0.996537600987672,0.0396286346659161,-0.158147287980165,-0.298216405251346,0.307707005714962,0.138897214832872,-0.90649991301368,-0.201402566387021,0.0892537599946176,0.0183534407102398,-0.0690334428741425,-0.20958323364559,-0.945037967260147,0.202704558428462,0.193895513732634,-0.219586412065931,0.33244545332442,0.237348290714881,idle
11.21,-0.396224215722384,0.300899332809436,0.874474298003979,0.0814460677103623,0.0473035426981003,0.104555055499077,-1.008746431034,0.052365388993127,-0.171052977538065,-0.326083104927507,0.313849508239545,0.13217999360747,-0.950519275468964,-0.205188995782978,0.0715148580922887,0.0287949701441079,-0.0393338643935901,-0.203371950235871,-0.970399006022617,0.206492113901593,0.191723315945394,-0.247407954248755,0.339949668551793,0.218670556238293,idle
11.215,-0.401939573131111,0.312411266902141,0.866487660220744,0.0664451361384614,0.0615008520349014,0.102085214520054,-1.02237956824803,0.0716661757554956,-0.182575570392116,-0.355051238470843,0.304378408543633,0.129233295934009,-0.979046884815506,-0.20276828816251,0.0665093266286582,0.0600832164474766,-0.0146384267960681,-0.191310883245624,-1.01437507645556,0.210011168707437,0.185085882325924,-0.256378424199608,0.338829964399338,0.191454058513681,idle
11.22,-0.404116424926803,0.310204779787889,0.860400116362924,0.0620672856091796,0.0586244479314345,0.0984465926885605,-1.02681351512009,0.0788503384001764,-0.187670271720545,-0.380284255996291,0.294968479618485,0.123445200659253,-1.0035928954188,-0.201025636421015,0.0648058260829405,0.0750177603893911,0.023057654852068,-0.153655805633091,-1.04414159099879,0.219848594759287,0.176977270335292,-0.260775435900791,0.341359114124732,0.17031014401775,idle
11.225,-0.397385542743001,0.313319170424967,0.857992845123197,0.0595480636114971,0.0631574210916398,0.1034877335959,-1.02449557559414,0.0848705030740401,-0.200013137355425,-0.411891478517123,0.279050244438797,0.115449224479828,-1.01951016543307,-0.196304610504395,0.0570795885384389,0.116835280635238,0.0651699577903744,-0.136866039614418,-1.07756835975245,0.22893896184171,0.171704335252992,-0.26998762861417,0.343716740608215,0.138882537680163,idle
11.23,-0.399461211438086,0.306524038746282,0.859961077548735,0.0584302176458151,0.0627905723439914,0.0996682792901993,-1.01551525112918,0.0790776252524645,-0.202153974456343,-0.421936573386193,0.278568570017813,0.128125219643116,-1.01884994905266,-0.203787465045262,0.0570115956469138,0.16128537362301,0.104091759781871,-0.123106587977428,-1.10079567756293,0.224476712181133,0.160344869449452,-0.279001818050808,0.337946863909053,0.116796509022091,idle
11.235,-0.402765513476328,0.298921826854821,0.867966627412198,0.056881168605987,0.0652357687421533,0.0976200490386637,-0.999837383138538,0.0708894683444326,-0.204687840539899,-0.430252815666802,0.263168269541356,0.124158198864619,-1.01382599158642,-0.208430024942805,0.0591139788615524,0.183001248088093,0.133860636104052,-0.104844142438818,-1.11408006380894,0.209114389144635,0.142271377640901,-0.294492933748985,0.341216877031215,0.0857103430988352,idle
11.24,-0.40566106727573,0.291956850279399,0.860420934702393,0.0586341864750119,0.0632893742657374,0.0928122207217083,-0.983551639190622,0.0550054395821486,-0.214335247753259,-0.422927602424736,0.254171659561125,0.126438946664218,-0.995975955406675,-0.220383698837955,0.0716415970934111,0.200105800718317,0.151912284306272,-0.105761381317273,-1.11065320223962,0.194279969333071,0.128779961790948,-0.323298769492927,0.344938427209854,0.0734855313230949,idle
11.245,-0.401154753053705,0.309038356587383,0.860898239341759,0.0533224143062585,0.058023677622687,0.0879745576242101,-0.984968441595628,0.0399206575828614,-0.220423952039011,-0.394972750346906,0.226527138238319,0.132769550992805,-0.977848216447419,-0.226558019410936,0.0726128568750409,0.211134326290274,0.161075386613926,-0.100658689878708,-1.09499834803035,0.178910514873601,0.102533287845594,-0.381219449539646,0.354088553627458,0.0783691903855526,idle
11.25,-0.393282947397996,0.319166371946185,0.859155525107222,0.0607903748743953,0.0555991269659298,0.085482068358954,-0.987348700300243,0.0231976875825186,-0.2266353031395,-0.334698942806935,0.213999069339959,0.138436317443848,-0.960335850947092,-0.241810615506,0.0837100319101434,0.285842046671896,0.155762676642311,-0.126745917130155,-1.08370860190349,0.165096784858401,0.0716823261344751,-0.434971467073391,0.352386414694415,0.0892810055028918,idle
11.255,-0.394232100640033,0.306310215723262,0.862751898266392,0.0601646143253299,0.0617645819123289,0.0808471409412373,-0.987445490371041,0.0184562450894507,-0.221575596787791,-0.282227252074142,0.179292160631271,0.140318004626775,-0.949374059766382,-0.253158339504727,0.0951467527009674,0.321873921050048,0.144045744460352,-0.167524528330618,-1.05809176865987,0.154521087044545,0.0622763327783398,-0.482262261756199,0.350757862376243,0.105973597465292,idle
11.26,-0.394175069795059,0.308726112531196,0.862479602295683,0.0630004071326816,0.0592463056900919,0.0769450022559063,-0.996495868438828,0.0085091589853332,-0.224533938034905,-0.215198643892209,0.144318544366004,0.148703067364633,-0.939983797534,-0.259891101623114,0.100777486605485,0.31663954633074,0.121490586748206,-0.217698234043074,-1.03204515443007,0.158569393547452,0.0607331222011311,-0.512159254500349,0.33021697495539,0.121477012362492,idle
11.265,-0.388386639853241,0.328156983640661,0.855034547910962,0.0603758426183819,0.0636987714792758,0.0708405728919328,-1.00368149700153,0.0085800615429994,-0.234391617286856,-0.16440410128196,0.113091603741148,0.152946117548546,-0.933134967113134,-0.25801006475204,0.099613848628962,0.315172866854677,0.0961469697017446,-0.284175171046445,-1.0075541107004,0.165759717121099,0.0691205344728358,-0.515984247146935,0.301620394104066,0.13517458236438,idle
11.27,-0.39422473403659,0.31375644997041,0.864692227814353,0.0507863609321067,0.0671853758288726,0.0668027281633979,-1.00911948391787,0.0255320555233705,-0.233351735654048,-0.0733587800964481,0.0750037281984913,0.154670981794613,-0.925015884534723,-0.253721242626379,0.0953332139532678,0.329047106343099,0.0824685149577159,-0.336545374039947,-0.998217316051868,0.178035157736455,0.0984023064411297,-0.50684230667462,0.269624572628001,0.139023163697153,idle
11.275,-0.397377958797769,0.300742433415813,0.865696431811769,0.0601293630897999,0.0615071607918816,0.0595987391119226,-1.01157038373407,0.0278948768935925,-0.238826977535599,-0.0129782249753941,0.046662347204889,0.164865634110545,-0.914026508748965,-0.245650042881145,0.0983347298913996,0.321228692038203,0.0719805176230511,-0.393277839276782,-0.997648036134969,0.186248788140133,0.143016940333833,-0.464737948612157,0.242805709931571,0.150006473602997,idle
11.28,-0.397416352973319,0.305863988187828,0.863081366527148,0.0609364346447039,0.0623872698907948,0.0557094519488667,-1.01540776029863,0.0326792055064512,-0.237793931092346,0.0291907862474179,0.0232566509693465,0.168795477863966,-0.901557242781418,-0.241662680305379,0.102808702910239,0.272380714060853,0.0680254569297744,-0.430371077905174,-0.999226406686317,0.189020229398104,0.179959899283218,-0.421269335424908,0.23578548453272,0.155364826102846,idle
11.285,-0.401969134991731,0.32116533415919,0.862794609930008,0.0624478456250508,0.0676036554399206,0.0533687993182969,-1.02069629946658,0.0416159855773681,-0.240622072555961,0.0725412577852752,-0.0139135363356965,0.177833776272546,-0.88971942515585,-0.237316385675595,0.102060998240145,0.238757091010319,0.0716299298147196,-0.470090653012779,-1.00470764054312,0.193210234230706,0.227995772481,-0.3762031840362,0.231841081697034,0.158347642456176,idle
11.29,-0.403346768448044,0.306996894590388,0.863985058981564,0.0603200699848343,0.0735532457012237,0.0507081308084028,-1.0164399052322,0.0534569884137719,-0.23992228346128,0.0977669642846435,-0.0383854534979249,0.180872121384787,-0.8821543512645,-0.237606510978809,0.110340346078813,0.196397426340322,0.0859977300441353,-0.516036491131634,-1.01438497961834,0.187788764740882,0.265189227153947,-0.341434718103474,0.23138621281564,0.156797613896752,idle
11.295,-0.397363948431306,0.313971862565499,0.867171021182865,0.0508597416083512,0.07419905160965,0.0444527789089579,-1.01383529805462,0.0703096387110962,-0.223295580008981,0.118825111800622,-0.0641807517120809,0.178752243518829,-0.881548443245463,-0.234187380764784,0.105709669225117,0.172664432119131,0.104037869466603,-0.551475716453155,-1.03080104852938,0.18637317895714,0.310353739991425,-0.314030255619645,0.233236432083256,0.143962127717838,idle
11.3,-0.409297834091739,0.327968509426795,0.854905154913658,0.0497121488691603,0.0721268074105132,0.0427534793043275,-1.01455593930926,0.0907786424161433,-0.217939426138061,0.121866059722232,-0.0786270237464261,0.173443257272137,-0.884985058693652,-0.225306052945513,0.0932905705123876,0.159197749100082,0.123241508119003,-0.588198627231837,-1.04019179423503,0.178126909094904,0.335004807708448,-0.307510163894613,0.219524017724508,0.126410597694136,idle
11.305,-0.397905798055393,0.304919767372441,0.853180187998048,0.0358535440123131,0.0859946832512802,0.0431943846320938,-1.01644985712371,0.114571878071433,-0.217787090698604,0.117515100833348,-0.102850924362538,0.167033874676678,-0.892524048522417,-0.216995177914371,0.08377259756278,0.13904234095391,0.126824361722054,-0.612978455223732,-1.05296240546982,0.159864497115909,0.355233828595888,-0.319689106950874,0.191541457297044,0.0998064904258462,idle
11.31,-0.38342174687336,0.339379126400545,0.864013596149514,0.0219194615994464,0.0904635372225648,0.040359874436886,-1.00839238108403,0.123286279766075,-0.19358665957708,0.111238841350124,-0.112764454202667,0.154981542761371,-0.905060465100665,-0.202904986390846,0.0715906690966635,0.103502943926156,0.138492323345278,-0.624557847279231,-1.06398324368185,0.144734766148046,0.358870927779669,-0.343547077513579,0.154591460700927,0.0813468841153974,idle
11.315,-0.408132779597677,0.30950917414232,0.849084091463934,0.0308381629589266,0.0930243837958078,0.0395727013634099,-0.998236766292664,0.140027042622274,-0.185627905592199,0.0833601278774737,-0.117930759979639,0.13868873321338,-0.919637936154372,-0.182630357427228,0.0560215736317459,0.0604798287774194,0.152233102895091,-0.648732471420904,-1.07800111919947,0.139651680093321,0.35712085914248,-0.378339453907474,0.108720539439392,0.0710411946428352,idle
11.32,-0.402545097892592,0.314414680824076,0.863960333050243,0.0193163865082061,0.091382855000552,0.0376568140169434,-0.985583879642369,0.157354049806472,-0.175067232170607,0.0499079777304838,-0.120983522784716,0.122656791109289,-0.932688082934757,-0.173034449340041,0.0439631580330515,0.0529260548435423,0.15911100188767,-0.663209562543613,-1.07947152938826,0.12408484987945,0.351840473232796,-0.408674764775637,0.0554603197303095,0.0427016015738521,idle
11.325,-0.393026803502378,0.336536942222219,0.843130028742228,0.0275742988550397,0.0890039317055367,0.0332660905079308,-0.976513065109127,0.160054684890492,-0.166969082590885,0.0234483438879147,-0.103775547737546,0.102749178836172,-0.943601125287828,-0.164124730487675,0.0304705844816581,0.0662004449873181,0.16672697747845,-0.671782331225238,-1.08118981617386,0.116112316379948,0.352500761595972,-0.438906484922649,0.0094874598361249,0.0173737949310155,idle
11.33,-0.405219617040246,0.322018584270447,0.858820228438322,-0.0014987370167222,0.0884104090986673,0.033615093802537,-0.962673330091748,0.169681230237643,-0.149189353158704,0.0036660559528168,-0.116214086543249,0.0790051866876352,-0.960536544600637,-0.15519090001052,0.0155783516316715,0.0948791974663296,0.175102788421601,-0.671869869618734,-1.07057275355224,0.103201478253918,0.339279230636658,-0.460829181193952,-0.0049644898878955,-0.0089292346340483,idle
11.335,-0.396259682584465,0.321793611169046,0.841705166319404,0.0083223046275302,0.0930330679225268,0.0353422585628355,-0.953401403048762,0.163798237631585,-0.131542393478183,-0.0102907193529061,-0.102620445854382,0.0616323445087129,-0.971052046848682,-0.138539788213211,0.0056674095800121,0.102070651193012,0.187766275544514,-0.665772814369121,-1.05689840335937,0.0889636017051861,0.313151650094914,-0.471281886100769,0.0177826244238943,-0.042049073872665,idle
11.34,-0.401264078817163,0.306016148579296,0.860201724945108,0.0043704612391035,0.0937588736414909,0.0255839677321444,-0.949072273387139,0.163762430606174,-0.120686594628055,-0.0148204383106695,-0.0925061421144046,0.0408242074586984,-0.98805532511117,-0.116190519582223,-0.0057634087216081,0.122944360858191,0.1916714134558,-0.661129945087228,-1.04225616376619,0.0787215150208886,0.284176862398391,-0.46714555695271,0.057910092647607,-0.068287126652152,idle
11.345,-0.394556364273873,0.320277525354655,0.851809430313865,0.0005250637314317,0.0850202498317251,0.0140922691158806,-0.941417093144392,0.158519175224823,-0.100379137618435,-0.0078368732231679,-0.0707186097448492,0.0142854193417629,-1.00925345497758,-0.0963013257703364,-0.0183120665100261,0.133545328379574,0.191141984620582,-0.653068572038658,-1.01899693628628,0.0695960658409449,0.253403729385062,-0.458185300172774,0.107620312769207,-0.0841673879411198,idle
11.35,-0.39963489005155,0.323103447975725,0.854375903038888,0.0049609847775879,0.0749260348614547,0.0072726986805453,-0.937917297775003,0.149280188072378,-0.0817885887995747,0.0040012817223248,-0.0512799776300965,-0.0058138448358835,-1.03064617514817,-0.0779091410835425,-0.0255061215031543,0.124177783163736,0.1876367040803,-0.631823866335759,-0.999092390602981,0.0627700986546768,0.201254459568062,-0.4549947604896,0.180401840299807,-0.0920421518205918,idle
11.355,-0.391301651730057,0.315057490768093,0.854095699618978,-0.0015398709208618,0.0651625135432162,0.0016622491599555,-0.93379684966046,0.141825237555991,-0.0694804370220662,0.0388127677835944,-0.0262096796297976,-0.0287206945623108,-1.05260795902186,-0.0616056750278015,-0.0320231681886845,0.100030859300695,0.176314460090557,-0.600783966177051,-0.979068258427204,0.057418021448799,0.161146547917143,-0.447079613587551,0.222837080833502,-0.09809794807954,idle
11.36,-0.389528391095565,0.311285000236492,0.858919068030136,-0.002292927941738,0.0580255031147538,-0.006121784696057,-0.927808016287564,0.126350880140382,-0.060012534839281,0.0851545610749874,0.0056028993650867,-0.047639949002585,-1.07775212393301,-0.0478080232519417,-0.0321066717264075,0.0570203835552502,0.161719778855087,-0.564467940066324,-0.957392180141557,0.0567863389426633,0.120937569370942,-0.42443476483041,0.265713896571526,-0.113355881541581,idle
11.365,-0.389295200426761,0.307362152077734,0.857601978251989,-0.0061149400753428,0.0503200996279547,-0.0112348018816116,-0.924660248560379,0.120013777797207,-0.0519598564184114,0.126097200936006,0.0444769163619318,-0.0659367586563555,-1.09225431650181,-0.0367737428809897,-0.0324903930490992,0.0165300012321166,0.147505573429307,-0.532595631435453,-0.941361896473684,0.0521335839913001,0.10101186956226,-0.401077791501394,0.290787813733145,-0.127388952421834,idle
11.37,-0.387719761404943,0.307029607865866,0.861375794690264,0.0038347116533793,0.0437610419091235,-0.0209994895153627,-0.918022229540466,0.115695864102048,-0.0505468423102534,0.195669467739639,0.0657900100407123,-0.0866211048501824,-1.10349902379117,-0.0189224820601377,-0.0234991302520963,-0.050219852325875,0.125481783218032,-0.494550596681067,-0.93181519407539,0.0550176658886198,0.0856091085920901,-0.378145209315679,0.289092908058866,-0.129712134599686,idle
11.375,-0.389081752067338,0.317334526142919,0.854773074016816,-0.0053251391084717,0.0365977376731305,-0.031463813116323,-0.921374476140289,0.117864075867133,-0.0535522586527305,0.248416656194934,0.0885222417459275,-0.102527669905202,-1.11028630861089,-0.0075823210349307,-0.0063718447401639,-0.104974727747181,0.102767213953719,-0.451813887083723,-0.931595619955053,0.0666566674696024,0.0862476667926978,-0.333977281004451,0.289808282864687,-0.123115717433626,idle
11.38,-0.39248086158445,0.318692221452463,0.855364329417284,-0.0074952428110187,0.028004954194206,-0.0396048873662949,-0.927189996097335,0.119675701896555,-0.0560069388366957,0.130598022306712,0.123703365103684,-0.123942080276035,-1.106693271938,0.0065619825516192,0.0076181216838896,-0.159797728111583,0.0761663466192899,-0.401091109915296,-0.937577608798585,0.0807033875126613,0.0930564875358434,-0.286184402140621,0.276012695590756,-0.107195930403235,idle
11.385,-0.390032852469692,0.320960476824585,0.858020602390039,-0.0103126080091098,0.0197905946638524,-0.0471853584676371,-0.93461147292455,0.124077372986523,-0.0602268789509054,0.322832673792442,0.165353862057671,-0.14620993192542,-1.10226314017243,0.0137766873353889,0.0195807066485388,-0.185081228630078,0.0458055991797041,-0.366193516664391,-0.943559985995848,0.0981511532098359,0.106688889919434,-0.239430959271454,0.271864591903837,-0.109709351726256,idle
11.39,-0.392570307683709,0.317428277054836,0.861270761266359,-0.011074789368916,0.0211600977096707,-0.0406313460557699,-0.943285457956805,0.125583098333043,-0.0676515377025447,0.411370948074714,0.180126326061404,-0.165759751174822,-1.0941859924432,0.0184894863142699,0.0363512115715426,-0.22566042480705,0.0072196905138139,-0.311359207645544,-0.949228716198402,0.115362093048762,0.123276169247268,-0.189772179244085,0.28738193152782,-0.10758480335111,idle
11.395,-0.396841567298318,0.315840850802912,0.858792231430002,-0.0117867947885686,0.0138572782540167,-0.0556507362859121,-0.947485197784406,0.13033157610159,-0.069772724291053,0.440571164645993,0.214598193905318,-0.183885937095327,-1.08541490490274,0.0235697932595926,0.0543607883964794,-0.247301354975507,-0.0258208510832936,-0.278679794686282,-0.947819232956978,0.132942736564415,0.1413697855164,-0.1624201218567,0.284994796677021,-0.0980286783352053,idle
11.4,-0.391497707307666,0.314892510077771,0.85683633893087,-0.0146614310489649,0.0062822530699539,-0.0564576757516004,-0.950196435504665,0.130324484694612,-0.0717590876779811,0.462403887382084,0.248663616009466,-0.205150417753138,-1.071208034375,0.0257431047937825,0.0731473561831351,-0.251173765007499,-0.0573933555923423,-0.247688529006299,-0.963447445646025,0.144454538214847,0.151751224685391,-0.128066474149308,0.291057101757307,-0.0983917846794664,idle
11.405,-0.395552573125766,0.321553401053725,0.85683065129488,-0.016972900103896,0.0014521268272597,-0.0576592893970626,-0.951197311037957,0.13619415246085,-0.0758543291251925,0.47276976265363,0.286497975453191,-0.221400069042677,-1.05776273917446,0.0228671326883415,0.0860920373832726,-0.243746732514434,-0.0820201804016997,-0.21861439874901,-0.96812372232673,0.159215820564588,0.161926030795881,-0.0666491927535842,0.271354309718756,-0.152863068803734,idle
11.41,-0.395308922788767,0.318243492916875,0.856710557656058,-0.0237083426814042,-0.00332684742858,-0.0631983221038954,-0.952034108994465,0.136778508480972,-0.0845935273147538,0.468867693316357,0.304003371127397,-0.238469423991976,-1.04152074515965,0.017707722989026,0.100740965747805,-0.257392717033341,-0.0965496850648097,-0.184298892949167,-0.950951579301975,0.1643004362361,0.161806003759945,0.0186197889335662,0.280014566792512,-0.235999554395676,idle
11.415,-0.394365490182586,0.320407761335371,0.852958472397014,-0.0302824379557555,-0.0103397448533548,-0.065750436216888,-0.954857666424182,0.13179784332799,-0.0919590137354982,0.466310505477822,0.332424875202582,-0.254261050402252,-1.02157505307854,0.0123934253411155,0.118030152567917,-0.273210028204569,-0.0949276978492155,-0.158240581044365,-0.958181749394158,0.173680185283419,0.169850215554268,0.0693389007144522,0.287978984442409,-0.229719469604612,idle
11.42,-0.394812994377712,0.323652968532288,0.856683578092639,-0.0399606409960285,-0.0124314248749938,-0.0679870520456899,-0.954838287951603,0.131620695675533,-0.0976871250407178,0.44926722129806,0.358430115491764,-0.268358829765647,-1.00470085430235,0.0066073998585602,0.133005359665937,-0.288467980079083,-0.100413435428901,-0.149015340007517,-0.959381418643576,0.179458254399625,0.169186681883805,0.0949717394909945,0.269253223736801,-0.205429040776163,idle
11.425,-0.398175869635875,0.321240112476616,0.854789547564575,-0.0437146723270416,-0.0133406751355338,-0.0656700405726028,-0.957998330730339,0.129264483359011,-0.109013364787361,0.433344077265323,0.393266257115452,-0.282807215862317,-0.989256738631794,-0.0076268102365335,0.142130424580724,-0.34006844480441,-0.0971995672081415,-0.135478550697859,-0.955633620348992,0.17707488623763,0.169159163134883,0.0982299954183545,0.254487171987315,-0.195637792567035,idle
11.43,-0.390797672070146,0.324111710144174,0.849065786734837,-0.0556374073603491,-0.0287815683565036,-0.0692965534559385,-0.952930289518809,0.12665091742397,-0.109250839459134,0.40974453901547,0.408220470038534,-0.295662080901441,-0.973820488963446,-0.0259765240289567,0.147517237637988,-0.491237103494098,-0.106067856490843,-0.122624906588358,-0.94156230884498,0.172286709809023,0.171234719361942,0.0825660101832284,0.248728025198477,-0.19559815779308,idle
11.435,-0.39326383876415,0.322172389390875,0.849209294516385,-0.0617290115223523,-0.0335858236018636,-0.0713689476251602,-0.94982109765521,0.122043170677143,-0.117964633577834,0.383328565174864,0.439705657791264,-0.310989753575582,-0.965166756010154,-0.0281363539926398,0.169315394583986,-0.616427889268716,-0.0889466667766935,-0.108413281891639,-0.931511721618977,0.168483017282217,0.171892492659555,0.0605264442248917,0.252832076195076,-0.160105765114644,idle
11.44,-0.396533148043152,0.322113668322349,0.853181216029559,-0.0761677521829606,-0.0317311424212934,-0.0689490782311918,-0.948934993709252,0.122204395480837,-0.124354282090024,0.353367723479513,0.461804067135801,-0.322834656461169,-0.9547991635435,-0.0267208575897827,0.197152869473697,-0.644834735303913,-0.0543311183344256,-0.104787371262723,-0.919691171658414,0.162126088931797,0.16870541165185,0.082461473320862,0.258749928313775,-0.12901823364283,idle
11.445,-0.398089628189127,0.320720414290312,0.847478729417109,-0.0795407571835678,-0.0382149728774211,-0.070971997733577,-0.948441373719888,0.119268416478993,-0.136546446154648,0.322935769243324,0.485976733448948,-0.335234491607781,-0.947887016944207,-0.0295880445214348,0.209779713230898,-0.570258631667822,-0.0233577811953983,-0.109706206701701,-0.915764782339196,0.163756504788594,0.153875205921257,0.139820021621782,0.253115968332649,-0.112885406564316,idle
11.45,-0.392990193391699,0.322546980873431,0.848427790154646,-0.0911269743041481,-0.0436636602161101,-0.0699496709546191,-0.945414616436255,0.110595213801528,-0.136057874823755,0.291740894951028,0.500641864445073,-0.344303955212167,-0.93991177089728,-0.0455248509117431,0.212518991256833,-0.490647600106538,0.0072192786822019,-0.112118298667641,-0.902522321677047,0.176249139338578,0.154090107342537,0.170368473039004,0.25586148343003,-0.105966079644178,idle
11.455,-0.39566419242882,0.314784385417523,0.848207361772035,-0.0947630474758198,-0.050199790512709,-0.0704100435185382,-0.941152797541296,0.0985768093142064,-0.139399177523532,0.266907210412778,0.527044965026439,-0.353628132103944,-0.938933902259591,-0.0622145736778251,0.212646391869393,-0.457963138818741,0.0258212722389924,-0.130801090805624,-0.892047193703343,0.177432973178058,0.151345386958999,0.160751843365371,0.256141078646303,-0.0966324362175197,idle
11.46,-0.393095748078588,0.306268773739429,0.856350968355561,-0.093385227230189,-0.0552878528833389,-0.0709850858509586,-0.939485826485408,0.0862501787199158,-0.142372465485717,0.229480787984578,0.551515362072651,-0.359804260330313,-0.940172105260544,-0.0768563645493285,0.212723420604682,-0.453504976350349,0.0363572402825656,-0.152616062604238,-0.885968980113422,0.175142461904802,0.149812503950352,0.178919139938049,0.24729833622864,-0.0770972371095679,idle
11.465,-0.40819285831294,0.307376975502088,0.862147805546863,-0.101423097120032,-0.0574646968121486,-0.0777662073237745,-0.946448935636178,0.0725824050813937,-0.147131920447937,0.189511575434962,0.582003418513516,-0.367778942914648,-0.946948818605679,-0.0808806673691093,0.215463649721517,-0.430209682179499,0.0488345607635855,-0.182134016560507,-0.886774985068343,0.172774236473922,0.16129805025884,0.233944225375886,0.242316097021103,-0.0686274170875549,idle
11.47,-0.397747345615009,0.310237376199966,0.850249859364234,-0.0999347039805443,-0.0558461494561107,-0.0731268478999019,-0.945895699349917,0.0631981161501982,-0.157922250974529,0.184372767830278,0.590588003348538,-0.374034667704338,-0.964879082926452,-0.0823741195519092,0.216777696118176,-0.377502688460023,0.069078569900835,-0.210823800148417,-0.891729245005566,0.171704693405131,0.176859408401195,0.275055838061334,0.242022053123886,-0.0986243895600121,idle
11.475,-0.394185233738674,0.318073934075442,0.850077477859159,-0.0948186313713031,-0.046976024878554,-0.0689255595207214,-0.948943063710002,0.054404514878604,-0.153786902421867,0.177754759279539,0.60835524041493,-0.379576236518572,-0.967672941148156,-0.0761497326971418,0.193539620202965,-0.298490084076496,0.0735793615924623,-0.231444149431653,-0.898659095316243,0.175874527514808,0.1812798901908,0.260755788860796,0.227149101652454,-0.126273984339958,idle
11.48,-0.387787746002258,0.310019070665039,0.858191934609161,-0.0964574998359693,-0.0508782974793121,-0.0696700327680901,-0.951200078311962,0.0561842766676829,-0.142110430655027,0.17460735014179,0.62499374663438,-0.382005542516708,-0.978716211293038,-0.0792554452812644,0.178296866091945,-0.224651960038709,0.0781498965800614,-0.233435271608774,-0.890994109237944,0.169528059979327,0.186522917559508,0.185975573243429,0.215537101336393,-0.127268746495247,idle
11.485,-0.388500787098063,0.312169541939901,0.852505127645001,-0.0980452201493829,-0.0504010766744614,-0.0631020210697202,-0.946154347484708,0.0603512214689575,-0.140489147877145,0.165291723806392,0.648548627074638,-0.385922003362119,-0.985188316148385,-0.0781717226754165,0.16438099774551,-0.225109663148545,0.084280466804814,-0.216514299777429,-0.884840141735849,0.163821457852175,0.182156344015082,0.114582953556413,0.186610170238696,-0.123733414900678,idle
11.49,-0.392291172673636,0.31918450051797,0.850899457879613,-0.0952078197036701,-0.0568735120549795,-0.0730844066005874,-0.952635448681426,0.0649988379027748,-0.149180993066644,0.17403855767688,0.664767408008531,-0.383162020910821,-0.990141208528982,-0.0701858126791133,0.147661652419598,-0.274124930538252,0.0833714024691519,-0.197104435046959,-0.872784526664006,0.160792824347632,0.186019388513935,0.0748657401541206,0.164151404232704,-0.122381970286369,idle
11.495,-0.385342582862517,0.318187187655428,0.849595612200607,-0.097469225525856,-0.060897996972857,-0.0695204197254825,-0.952549416594678,0.0760703510823985,-0.155645081449192,0.172882065176964,0.692028665933339,-0.382955664279008,-0.996698768097808,-0.0606191136841504,0.138381152243651,-0.325078709259595,0.0779687702152828,-0.193801113192921,-0.870963956281449,0.161596366789159,0.193148965060583,0.0298880126387201,0.144155071547244,-0.124825358390808,idle
11.5,-0.387325417682245,0.30995544778524,0.847417853969717,-0.0998317938699172,-0.0609621566763291,-0.0711772356354273,-0.950319132141813,0.0761739590168881,-0.158268714146854,0.169828552942304,0.711608614300835,-0.385212318925463,-1.00183712835229,-0.042831684942791,0.13301999099757,-0.330888517876149,0.0756075380044886,-0.195927362551451,-0.872296153145467,0.15687625683804,0.201349325815124,-0.0014586308297741,0.135199581049646,-0.122681919459906,idle
11.505,-0.389249759561463,0.307962920187952,0.849019700566725,-0.100060777838561,-0.0646169201268774,-0.0730715146882702,-0.949254106832013,0.0779201372377533,-0.164865330431893,0.171139945737577,0.715143583817041,-0.385670632123947,-1.00627280481343,-0.0295820262113858,0.128684225591727,-0.306856754990684,0.073068575602468,-0.191301343247773,-0.866517496547836,0.158782532658733,0.198929404675274,-0.0437749270870635,0.12727482516619,-0.123093806708592,idle
11.51,-0.392466546818671,0.316368796121447,0.85299711459142,-0.0987912833961585,-0.0700366915397755,-0.0707138493094389,-0.946151773731842,0.0858569086906245,-0.172346432344953,0.163679446360538,0.752759703484069,-0.408149201738795,-1.00998971837151,-0.0220331012780769,0.116825657362366,-0.241953847031765,0.0690634670311232,-0.204815922839328,-0.866986517326041,0.151772254394785,0.199268713054475,-0.108203794277389,0.126398023218753,-0.132441378259908,idle
11.515,-0.399884142887869,0.305910086440314,0.852589584044049,-0.104039006541006,-0.0687949231469622,-0.073812335729599,-0.947533918671172,0.0795601954346871,-0.17030770349408,0.157587587794212,0.768060056118602,-0.414573914475533,-1.01305269189399,-0.0194292360800947,0.103075536203122,-0.246522573621613,0.0555004291221921,-0.207742441245714,-0.858074414191396,0.151393272638166,0.196358247237426,-0.195000416055835,0.129065769334318,-0.142551419506874,idle
11.52,-0.399198405489161,0.309198450290431,0.847707233349696,-0.106758244127222,-0.0760566592216492,-0.0770260108981737,-0.945383949053638,0.0818616128626238,-0.16926292037141,0.158455735705257,0.788739764069207,-0.426896431064902,-1.01518797296974,-0.0150513875775744,0.0888346418297006,-0.283924463633319,0.0322861387492427,-0.209124384744981,-0.840873509403554,0.143352214387835,0.186530514239963,-0.296232103436077,0.129920184612274,-0.158925612345608,idle
11.525,-0.393470055380923,0.318896757610641,0.837758271335036,-0.114023542775577,-0.0825627197500013,-0.0797834542577132,-0.93549869510698,0.0923782711027749,-0.149368857765596,0.153254632250314,0.831269575955286,-0.448870222397405,-1.00925544234319,-0.0031194692884224,0.0763967567299742,-0.330690784523934,0.0113505739510285,-0.210578486323357,-0.832498227396275,0.137992610603217,0.175383075196706,-0.378308812097825,0.125062206957369,-0.175078544142963,idle
11.53,-0.383553691801725,0.330525457465706,0.845171593774007,-0.119651837161278,-0.0892341634188846,-0.07644783507893,-0.928457990941131,0.0939489642447608,-0.120492334141157,0.157072569604009,0.861295297619513,-0.45754498421136,-1.00013127492578,0.0091053120481089,0.0684091470422652,-0.365033967401344,-0.01314787158875,-0.214697133123619,-0.827369936414876,0.128819668983102,0.164731926894389,-0.43189111787633,0.121277382071636,-0.199886412810475,idle
11.535,-0.374824264175721,0.310589413598044,0.856685234278136,-0.127084532545798,-0.093396984599257,-0.0794476035987844,-0.923451797986059,0.102508982257955,-0.103911117033964,0.125955499220625,0.894045226942798,-0.46619967821855,-0.992710945271474,0.0176051206175454,0.062271332562784,-0.408311552281209,-0.0312556421497485,-0.211087890358728,-0.820857079737594,0.135001798539708,0.164577194940821,-0.439964948485481,0.132587144881566,-0.236327003826353,idle
11.54,-0.378349312935834,0.312525574047026,0.855496295727284,-0.131812674299569,-0.0943140798720725,-0.0791970067338139,-0.918871515963134,0.105678542484559,-0.118815544281114,0.0903662555472361,0.930545007625659,-0.476110301874988,-0.985960374866154,0.0294986253176324,0.0543222060002192,-0.461078539621617,-0.0500174037278019,-0.20488349902833,-0.823657536346422,0.135459883173463,0.164795178813342,-0.417959584874616,0.137255627804574,-0.256330828515992,idle
11.545,-0.390783602358341,0.323070184045159,0.845156058691038,-0.131401369225099,-0.105360146989438,-0.085065716538677,-0.909925376125206,0.0997123016704234,-0.140063251273801,0.0954976261987912,0.951561083541608,-0.48397212153016,-0.985239627544168,0.0487752834289347,0.0529184319949309,-0.534800054557397,-0.0676246883926461,-0.186983107832786,-0.833930669207343,0.133950979443277,0.167666027144359,-0.377795745323597,0.156018388919587,-0.271889045014088,idle
11.55,-0.385613728474559,0.331119822153863,0.843001002804115,-0.139006853103638,-0.102096403019161,-0.084423427228414,-0.90192761366904,0.0887192586474441,-0.124978784566334,0.113019034266472,1.02139976503549,-0.525917229277377,-0.981010207049856,0.0591342371227687,0.057237068669549,-0.608565564365706,-0.0864511754164185,-0.166110006373298,-0.838257218321743,0.131669368378879,0.179862905590099,-0.327446184147723,0.18945897461044,-0.294581069381108,idle
11.555,-0.369057019341436,0.317566710208201,0.857706131509459,-0.136543115085769,-0.109575849906528,-0.0848279321130038,-0.899258236859355,0.0994358814994706,-0.104018730911573,0.105981915544933,1.06734635120541,-0.549739526762027,-0.985535749743422,0.07172749697351,0.0627590956297887,-0.657092199272012,-0.105234315709411,-0.131642287899753,-0.850748652166596,0.135652530059348,0.189160369662223,-0.299788281778962,0.221444924581676,-0.299714550579897,idle
11.56,-0.365370721012049,0.324876614929657,0.855639753843116,-0.135297862248089,-0.115194794797738,-0.0940714630895829,-0.897377617852837,0.130027557036364,-0.0908876936072026,0.0752800793127871,1.13297747304579,-0.57180344157582,-0.985718866398496,0.0821895754036093,0.0749758737620308,-0.721761403472558,-0.122409048109713,-0.0726147508393079,-0.87101586722402,0.130338352611853,0.197602311720414,-0.261674990973025,0.271552141284085,-0.331707980311185,idle
11.565,-0.374891448161582,0.344060774677822,0.845964434014044,-0.138749240214505,-0.117207853350106,-0.0981174244450474,-0.896625372838718,0.14121691486685,-0.0914714290830848,0.0406417419239178,1.17874592152262,-0.577323597463835,-0.98255647566199,0.0933040078207177,0.0909583476532305,-0.76510989510909,-0.138215999859311,-0.0282199948435284,-0.890882719991058,0.121459544740924,0.204985234440756,-0.236823176695409,0.31173942931116,-0.357036848198725,idle
11.57,-0.365588997289048,0.330102164105707,0.848734743155043,-0.14999666412007,-0.11759427189827,-0.106798090040684,-0.890457045441357,0.136416182276634,-0.105206968958303,0.0102864086305864,1.25521450758759,-0.598355773144796,-0.978040437572016,0.105327972777573,0.109367452382154,-0.792074753588297,-0.153900541988086,0.0340586756384541,-0.915343926434907,0.106040953847781,0.206687692451825,-0.204289755597477,0.347389086364074,-0.398812671178019,idle
11.575,-0.359150676720597,0.322768835718627,0.856888972024957,-0.160214547936123,-0.119996171993407,-0.111121504938605,-0.891576497570775,0.118630956017933,-0.1142558766366,-0.0064611345941428,1.32130794316568,-0.612889496457257,-0.976081629816114,0.10238196726278,0.115656898728199,-0.781058044906569,-0.157641945231061,0.0799652962361255,-0.937715174476674,0.104335310174104,0.212352340331359,-0.170408261092269,0.363091542242265,-0.4054627019601,idle
11.58,-0.355220800294552,0.323934567969082,0.86109376370576,-0.165459417178467,-0.125296722386176,-0.117793336510658,-0.908032810343518,0.109065956558142,-0.141572197044174,-0.0320822828988096,1.39273851912045,-0.640034130419592,-0.969403030486071,0.0916573208972283,0.126982718995409,-0.763176644230253,-0.162851968251513,0.137518849170923,-0.964618056890134,0.0921708356625243,0.212521718531507,-0.133399524155046,0.351029161284359,-0.413997882429679,idle
11.585,-0.365119965539527,0.327389547021327,0.86382810055168,-0.173662525135922,-0.113922937055651,-0.135572541165211,-0.910707733422582,0.100704326549606,-0.170667182460936,-0.0451283345092392,1.43008596098392,-0.67252055217072,-0.959410609393103,0.067640007985468,0.131263388505935,-0.752067226207132,-0.171012189948684,0.199164211797037,-0.995504021687989,0.0839205881732323,0.212448191319935,-0.105475603104764,0.32804096304545,-0.420729307921804,idle
11.59,-0.373557661861309,0.323140837819952,0.860529082895711,-0.184033476239276,-0.105903744100986,-0.131402647380461,-0.91985205033285,0.0923936206229483,-0.185996973814303,-0.0532824582571904,1.4868900059789,-0.697780276061253,-0.953521143999339,0.0441208272364427,0.133448635014027,-0.752423310599871,-0.174770840540428,0.242524903188615,-1.01448622421808,0.0753629930711359,0.215209566467353,-0.089061572851861,0.303085496587636,-0.416567678187155,idle
11.595,-0.376622291460552,0.307907251835671,0.868177306094953,-0.190318018198013,-0.0924039710500603,-0.148597585453277,-0.932955496056875,0.0773585083773875,-0.214041482188969,-0.0519963452089288,1.52942629570489,-0.725792158250124,-0.943512406280771,0.0226221422888484,0.133330425493213,-0.766247263668755,-0.177571320722217,0.273360849811721,-1.02784887208402,0.0544569982504391,0.216423709014787,-0.0667485166999887,0.277294842815185,-0.410152210945499,idle
11.6,-0.377051585392079,0.307005714050567,0.868283433685943,-0.198190446200242,-0.0753249260415805,-0.158651520975494,-0.933037992544548,0.0573734970905971,-0.22890707414382,-0.0467203878824789,1.59528335903344,-0.751539456595874,-0.937245262913771,0.0071831302064844,0.135093046179983,-0.77141413406304,-0.173625956401119,0.302878744327831,-1.03593327494711,0.0454497352940416,0.217178126884028,-0.0307398861468655,0.264442522565709,-0.404077546482766,idle
11.605,-0.373269701755198,0.309788280824981,0.864194651347814,-0.21771380065541,-0.0490733593806202,-0.16841705566054,-0.935422233409534,0.0418663993736464,-0.232659745575031,-0.0309855997138602,1.63261796907857,-0.771313451305238,-0.931240307988513,-0.0028284777437898,0.138079839652574,-0.777406354070478,-0.166074487735824,0.325839464206729,-1.03463588912047,0.0456026591727227,0.212595732106576,0.0107958583299812,0.266793084654452,-0.403607436358629,idle
11.61,-0.369206301061105,0.301103842928979,0.882663740660755,-0.213337574286327,-0.0276449472116604,-0.187876125848195,-0.945446079909314,0.0203895379027897,-0.235544956466686,-0.0352051464064287,1.69240840180352,-0.788970975061165,-0.928606246142982,-0.0174464973921979,0.132645158112956,-0.78293389081955,-0.156985511548674,0.35648212985703,-1.02513855766336,0.0364120604828929,0.200972821765308,0.0401609847234587,0.287996164146885,-0.401702879147387,idle
11.615,-0.365003227128848,0.301323404433805,0.881770287336637,-0.214786595665774,0.004944382358586,-0.204798796580388,-0.949674791928694,0.0026735131139362,-0.24616720777291,-0.0159817778096935,1.72922439744713,-0.799269479935484,-0.927174181793829,-0.0330379367315023,0.127748895381815,-0.782032019394544,-0.150296618541645,0.383689414814628,-1.01598426120219,0.0349457095912988,0.190740276707245,0.0360457901750496,0.311828512699064,-0.397974232134857,idle
11.62,-0.372970063050719,0.307960573152674,0.886189975248706,-0.220818511508469,0.0324229309532752,-0.220585645193235,-0.947749334985981,-0.0142353263119226,-0.268295447823377,0.0177538591121882,1.77188225418425,-0.807690944315588,-0.926521997999105,-0.0456648003268283,0.122533140777021,-0.787136188946534,-0.139635291054082,0.40327640555943,-1.00360774790594,0.0373244992214473,0.184537785860601,0.0329238443350054,0.325456215228335,-0.40071388741545,idle
11.625,-0.37816562005225,0.301968315428467,0.887265116642258,-0.230807768480519,0.0781792275996502,-0.243015816758805,-0.947831206842213,-0.0326268927638999,-0.303865087281239,0.0673921551304129,1.80419701397244,-0.814016815154783,-0.923997238944994,-0.0566904429872087,0.112023849794762,-0.789408961770469,-0.128356660924395,0.428733332412614,-0.993499335168606,0.0333193441330482,0.180560871307796,0.0264769223144664,0.3353282681483,-0.400663746802677,idle
11.63,-0.375420329534245,0.301514348689641,0.884766245518964,-0.245800017572965,0.126394308880657,-0.272494600030764,-0.96516773770768,-0.0419090370508359,-0.325612811688494,0.108693406565741,1.8375539076752,-0.828730938862647,-0.921010977011434,-0.0586087744158707,0.103634731806329,-0.79590682044191,-0.123507522544671,0.445635814074942,-0.98253657581702,0.0379124023677039,0.176543604007136,0.0400828879104978,0.342981427462616,-0.405461113579375,idle
11.635,-0.375267933657123,0.29907664179158,0.885808019061578,-0.26394943760767,0.180971282137181,-0.294870255009214,-0.974660382888898,-0.051304724853924,-0.346637188850917,0.149142247346133,1.87409436208175,-0.840891579544589,-0.913829023219246,-0.0529925744893303,0.101683435979962,-0.801203317526428,-0.115655685164536,0.461095585563434,-0.97661459935404,0.0407648510710711,0.186123463016897,0.0468215909486676,0.328010188816159,-0.390698801879802,idle
11.64,-0.377248838889176,0.298742798038284,0.882834037448468,-0.286659293285982,0.248731635849781,-0.328216954987713,-0.995553617507718,-0.0509512900616746,-0.359021973280925,0.187214692553493,1.90090774101314,-0.838585576451577,-0.907016920418823,-0.0436712107461802,0.100673930854002,-0.798078321695928,-0.114005849396702,0.47336257009122,-0.971295716436257,0.042843877360745,0.19010096379506,0.0902564652588413,0.304232210082952,-0.399634860652827,idle
11.645,-0.400584965376879,0.302857285006339,0.877907705966786,-0.308133290472438,0.327299106623681,-0.358947574287734,-1.01633940135636,-0.0552740811361141,-0.381394625920238,0.214280785826828,1.92583425900189,-0.838767387814602,-0.89904584564324,-0.0381978252870398,0.100660151104514,-0.764787485475417,-0.105263080791719,0.477235555648804,-0.964313989550038,0.0511725284516034,0.199696539985656,0.133057191446735,0.284327761159438,-0.410352648195777,idle
11.65,-0.386257146634075,0.319060757644084,0.884106163092236,-0.348198622780943,0.451057923927117,-0.400944654132711,-1.03769099342538,-0.0693335572229495,-0.426613317097688,0.239783588344833,1.95225489389946,-0.835687698948833,-0.884376265778339,-0.0432471174160248,0.107684482046633,-0.711167696003829,-0.0933621014809653,0.476996174754494,-0.958974040151806,0.0557296576831804,0.185555211057942,0.187561612761686,0.296928013216055,-0.430391901000861,idle
11.655,-0.368718251154272,0.304846164531598,0.919299388977217,-0.38282168714269,0.581978502743542,-0.442924805926945,-1.10738642209864,-0.0991665762527485,-0.474489003782152,0.265854915848955,1.96313736752876,-0.850046694292095,-0.880914559023329,-0.0523961993196917,0.122370862768753,-0.67013450992599,-0.0913282128484795,0.465039143500009,-0.948239619803475,0.0673907197986712,0.138943849235056,0.216242281377101,0.330607435702762,-0.430442209383525,idle
11.66,-0.618053986748317,0.297243044499714,0.82641358981262,-0.451557593472686,0.773958453363724,-0.516966278821036,-1.17443761524193,-0.0965153314953508,-0.555542560800226,0.294669256458028,1.96022028684331,-0.877936051487497,-0.90870415302971,-0.0728446814521767,0.15001611652339,-0.639109873491794,-0.0840678733711465,0.437039898166742,-0.948639505638013,0.0693294786160732,0.0750101666488756,0.241549811138435,0.409440827907439,-0.421824701042941,idle
11.665,-0.899609207963241,0.499357261082018,0.918882800620203,-0.601228655846447,1.0328028171274,-0.678216422860436,-1.26198887659582,-0.0283371630590838,-0.842219832746634,0.298864717785695,2.01907187432706,-0.920290745085693,-1.02878051217518,-0.110437560473654,0.196859878687379,-0.620067289468196,-0.0778391361236572,0.393579145731604,-0.990299578040774,0.0860718411845484,0.0502900511620314,0.338699803417341,0.490649458078748,-0.407353252446136,idle
11.67,0.0890790158558417,0.42334199635601,1.02084173122471,-0.67933741917312,1.14066035637022,-0.741399903907539,-1.45908712386275,0.134448921180407,-0.673982831112622,0.40887742024372,2.08214752913809,-0.968109445824335,-1.19585009697041,-0.145593572016707,0.252382105529137,-0.629095511713578,-0.0692793489157529,0.35377830088229,-1.06296524012151,0.115789147497304,0.0673489099873596,0.467782193672232,0.512184356200521,-0.394964094144084,idle
11.675,-0.10045396876293,0.287572602900145,1.01298662870486,-0.594826258684654,1.39552867465592,-0.876937046883017,-1.44966053628322,0.0422593345571192,-0.230485373687537,0.314367539485872,2.18557184273898,-1.05123761652855,-1.44813641551163,-0.186799264737553,0.326881100711981,-0.689112159481515,-0.0589594750998541,0.325756715669677,-1.18416911306532,0.161118364329418,0.093891175661795,0.600921195180635,0.503811740656032,-0.402756435038374,idle
11.68,-0.315861629769028,0.372678559772131,0.940201910770696,-0.504702970248774,1.64015096251962,-0.930035857684643,-1.56461075337676,-0.0196091662360665,-0.113527384401158,0.140410042715114,2.1927180022884,-1.14876481899687,-1.66333343695988,-0.21643784816283,0.417920228957497,-0.763471279137425,-0.0309793383011667,0.380434167971427,-1.32125933987602,0.224733988125972,0.110429904328083,0.675765092052792,0.467505379817191,-0.399839127825798,idle
11.685,-0.41567170337402,0.267163418052005,0.969488283645985,-0.576498409996523,1.89291690317801,-1.08771976772344,-1.57958619038727,-0.180381251230495,-0.336185307890729,0.0544850328336442,1.95644949488575,-1.04075104355953,-1.70656320788626,-0.221678279254393,0.489189080259164,-0.837708533200744,-0.0086091993857629,0.536085446206346,-1.46027124281839,0.304895297072054,0.0953173321426284,0.673456202322962,0.432305083237175,-0.407945312280415,idle
11.69,-0.368739735254808,0.309336093182176,1.0152226358336,-0.463403703635012,2.09756312249095,-1.1217432820233,-1.48333192851751,-0.294143653108224,-0.39076042654552,0.335486215064595,2.06952853832561,-1.05588389623464,-1.63025051264648,-0.210856969628288,0.563401276720444,-0.861140316709548,0.0316090908653784,0.835108010064748,-1.52469131693431,0.352606795929119,0.0635749367854462,0.598159829812184,0.420590102126458,-0.425354438274333,idle
11.695,-0.311238864998012,0.321192488796321,1.02772408992785,-0.462722293872903,2.35147338250338,-1.22426779228866,-1.5270391731731,-0.323649450877543,-0.332726679602339,0.365662967936355,2.35298279478488,-1.07227159343038,-1.55455895087192,-0.196256983585105,0.584804456832116,-0.790307532124767,0.0662050614925355,1.01796546672267,-1.51166113143808,0.349335016318954,0.02415946705006,0.48614807949458,0.395016171918132,-0.444481867335142,idle
11.7,-0.255535659208767,0.335924973871036,1.01049084095529,-0.441095480845784,2.60474484597547,-1.29902237695845,-1.70010542701566,-0.271184370350238,-0.246394535958607,0.365377187670663,2.5481959333671,-1.11723085115069,-1.5006902885295,-0.166360212870809,0.587485665425948,-0.592142307990716,0.0822757262664533,1.07187280572851,-1.44522919676408,0.313681828938108,-0.0459605136133477,0.386849726545814,0.326470302901167,-0.448682962585192,idle
11.705,-0.211252400017764,0.378396073805292,1.05181186366438,-0.425969367428408,3.08733841235255,-1.35605139368231,-1.86083915081611,-0.154418561033178,-0.152484337280853,0.471383016988774,2.66549213705236,-1.17303323536332,-1.47721019625664,-0.0900405994694115,0.542368422915047,-0.187113395963409,0.066405293141089,1.00040237125438,-1.35787783705516,0.267491849873029,-0.124952282940274,0.298534561319226,0.235432771924434,-0.38456943095187,idle
11.71,-0.224485144568154,0.386710164282359,1.06954392258689,-0.419035872302019,3.56249358827573,-1.49369372246292,-1.94098000095092,-0.123929753979485,-0.0916395799290253,0.570307199991825,2.7274950595149,-1.18923034586809,-1.50330187290999,0.0157453005314139,0.489981456452634,0.253773227261643,0.0002059051923583,0.90262405589362,-1.32442306121549,0.232679033332329,-0.185311820143558,0.240038512025827,0.183879048207203,-0.304483905233923,idle
11.715,-0.221893449558954,0.442218654917186,1.07393505039075,-0.403373437660716,4.09987677520822,-1.59215852130597,-2.01876014841483,-0.143755887067757,-0.0602929824310682,0.623560818306037,2.86630041650363,-1.23887586631945,-1.55800812292412,0.155305936041315,0.457077200159724,0.523412709499103,-0.0738551882822184,0.912779321119085,-1.32810044421584,0.202806460076218,-0.204397957656091,0.192444919045033,0.193217169248222,-0.165392563892016,idle
11.72,-0.26082155635478,0.462118880149032,1.04597469006594,-0.412134803983984,4.53121426910594,-1.71566199103248,-2.10213983270902,-0.172217826032174,-0.0273188578344331,0.628702218744533,3.04089845975111,-1.32297587609982,-1.6172728729696,0.302374147442629,0.453672025747134,0.909692180753114,-0.209479846334353,1.01345480330678,-1.34641354363776,0.182505634400774,-0.19810355542259,0.137106083625449,0.227769193921358,-0.0293187837815983,idle
11.725,-0.303355583179341,0.483269700457853,1.04835299759809,-0.520486972277709,5.06907653052869,-1.95937864329107,-2.15605502889052,-0.158500505155327,-0.0476680597042798,0.644216977249924,3.17836367371317,-1.38492181178818,-1.66231530528408,0.413033922787895,0.479205960474902,1.39002538960561,-0.374119480461693,1.22491896910551,-1.39099586664525,0.155806517946677,-0.192827804704642,0.0721906670639409,0.291703190030434,0.131183396235452,idle
11.73,-0.328022373616703,0.404384699910888,1.0637860941887,-0.690560966813836,5.59140785974733,-2.28876764807126,-2.2353005584824,-0.149457328682558,-0.0488005508186932,0.701631988582931,3.35761984746157,-1.42793320500916,-1.69410608666842,0.456576511931774,0.500362358248385,1.77167473204809,-0.524628731751115,1.4547836265873,-1.44479814574856,0.113437001111622,-0.193788381643726,0.097563415082739,0.364021211179541,0.246162469136688,idle
11.735,-0.41400173785997,0.494118767722163,1.10156183151744,-0.963785198322678,6.19603045056752,-2.71877815018724,-2.32758084916656,-0.148320948652753,-0.0717434046727778,0.743159242178133,3.45916775470329,-1.42332397828162,-1.70197707947674,0.440393315062387,0.501561407060484,1.98323477629209,-0.639538446941498,1.68842136109813,-1.50156671800263,0.0717315096495014,-0.204954539742234,0.200551171334561,0.455892481802181,0.309504984081199,idle
11.74,-0.491087535532251,0.466714858576992,0.996257706063692,-1.33748577831974,6.76897974141137,-3.07806589429757,-2.42848996488345,-0.144659943448063,-0.0965480278478904,0.85627769132815,3.53394624944854,-1.39137635291037,-1.69110227855567,0.402625556663667,0.489293271439385,2.06181674636991,-0.749290180999925,1.93995865039893,-1.56686877349232,-0.0109608298019598,-0.231080443492971,0.387837008739025,0.547292971618571,0.320396929587542,idle
11.745,-0.731114286952581,0.453583192347072,1.1507285753328,-1.90107819814994,7.45677429524668,-3.57267890716347,-2.48359334919697,-0.113267576536034,-0.134638471990367,1.00713059171913,3.56542025763868,-1.35317174065108,-1.65959010557431,0.356893236366254,0.465318689941489,2.1280119927274,-0.79876059287836,2.0968645737352,-1.60936330286684,-0.0993149383365462,-0.25938420250628,0.591977807749159,0.592101689065302,0.296935099825336,idle
11.75,-0.692776622113643,0.70076388500215,1.19365714347234,-2.44398496366424,7.84307712110221,-3.99217192560138,-2.59216997342751,-0.0362783575118,-0.0924988360838029,1.34199388655237,3.57162732379922,-1.29506914476271,-1.62450547247326,0.32582796758744,0.414724872453242,2.36434908629473,-0.820733918121403,2.28094647067446,-1.62860618355085,-0.178643149228379,-0.295942161708076,0.737428407493899,0.572613969617551,0.298775726159322,idle
11.755,-0.556560814035979,0.498643320699999,1.24639970904929,-3.36321799156336,8.41017592454648,-4.28483891334538,-2.65958553343364,0.0861906987819053,0.0390570900597289,1.65511468119672,3.50814469825303,-1.25886496584127,-1.62134724437925,0.3119657785136,0.340108683756285,2.63593145150631,-0.792395359169951,2.42390612698913,-1.62433226459491,-0.265378177378943,-0.326047147042111,0.847412487442258,0.448767353881044,0.315653320327335,idle
11.76,-0.803503917243895,0.158151914619979,1.1208874557414,-4.02348814684992,8.91267570187019,-4.5848749800796,-2.6485859134249,0.241250030504812,0.0824923717507739,1.93851256992604,3.37299998193984,-1.17823445837227,-1.64115379551769,0.298764456898235,0.21770977058743,3.04907867794286,-0.722499605431624,2.64793611209371,-1.59224535811017,-0.324707639345094,-0.342531656545363,0.874514216778185,0.291307203350001,0.339080330782157,idle
11.765,-1.37455629266806,0.0438984495733028,0.927024344388254,-4.60689466735404,9.37181995269541,-4.89550847739847,-2.52904682159197,0.319230015405001,-0.0661093432283178,2.13452761299552,3.20411118785456,-1.08574937369403,-1.68843572151148,0.279956221371786,0.0688401058387604,3.43569211945422,-0.609252635632552,2.89730692036995,-1.51892138657812,-0.356538478807603,-0.337623131829532,0.823773069538172,0.0728344279096515,0.358808116668074,walk-stairascent
11.77,-1.79799628803274,0.300810805568982,1.57241460757591,-4.78473289455292,9.94322773905844,-5.27612447406973,-2.34914168777316,0.227383492485442,-0.251236890944005,2.32495525002281,2.9965248391114,-1.04012813766351,-1.78484022400167,0.251074823428785,-0.119430552172234,3.59887449242097,-0.480895860577817,3.18109434817119,-1.44508212555097,-0.356714512290592,-0.314687553096185,0.758457463908179,-0.0949493462883772,0.352497184013335,walk-stairascent
11.775,-2.04133664360652,0.725443362525897,2.89456419492315,-4.302499362002,9.87569453858336,-5.10825747894787,-2.0885664306325,0.0813560919171859,-0.309020470115135,2.52501345571482,2.76098422002555,-1.10402030977219,-1.50894477882592,0.272465972480701,-0.453075603428412,3.39259364863114,-0.24845233999178,3.60771550069192,-1.30847452308789,-0.334651508059752,-0.256615147173372,0.579227814749161,-0.354507356724428,0.31888407271346,walk-stairascent
11.78,-2.16891185774602,0.957977199004367,3.69155322721186,-3.35381109941895,9.00080285589623,-4.34997845809468,-1.77864223779444,0.0865126978861492,-0.311994847197397,2.61770456124396,2.68631471268389,-1.1467172199979,-1.69819104135546,0.157018273851001,-0.360101594305487,3.14507520827873,0.161277272732794,3.52816800829826,-1.17985991563322,-0.305630706254814,-0.191294068482402,0.442367464338961,-0.51092262582152,0.286774006066749,walk-stairascent
11.785,-2.34214496348668,1.49217745982772,3.14236827298209,-2.74451936386603,7.86397925645594,-3.61363167350133,-1.72289169316077,0.275170190969948,-0.496937410340563,2.61231153810528,2.86279125449026,-1.17172532859524,-1.76216816300847,0.0587996520448198,-0.371597634267557,2.42800683589009,0.466000014670039,3.93268333576514,-1.01725627584953,-0.24725078813427,-0.112851552065058,0.314744793580217,-0.597847580988554,0.262247707560336,walk-stairascent
11.79,-2.06729245475922,1.68128869000102,2.22561021820531,-3.55117463052828,7.10774050659855,-2.98124402718641,-1.58418481208512,0.341430044036187,-0.638567769419311,2.27270105269492,2.72734555511733,-1.41379987862603,-1.8953873640468,0.251884439095944,-0.226463010504826,2.38333328387576,0.30518984010147,4.15473957028183,-0.895026323338694,-0.184619394609502,-0.0682191514644727,0.250579939366794,-0.585580522953247,0.253727163752117,walk-stairascent
11.795,-1.88510218949895,1.56229136642072,2.2053148306895,-3.07745243564833,6.95435606360139,-2.82631806176271,-1.59273257003504,0.43878422479333,-0.807355644884621,1.9264615496486,2.64909602417031,-1.15223767162269,-1.64336389830316,0.110297331615605,-0.353599306299236,3.76040784454017,0.249516034065086,3.98128804503503,-0.805918548871181,-0.110598218809955,-0.033864037508805,0.203911507258485,-0.476804199518098,0.227381220742099,walk-stairascent
11.8,-1.60610405466739,1.1479529493921,2.57903775809156,-2.0350224735289,6.11240762337578,-2.59150950629427,-1.57247586631288,0.51889594540724,-0.741917992035471,1.82468053631732,2.27826406088777,-0.879042469846629,-1.77372685127903,0.0780427393175289,-0.552983967526127,3.9576954358497,0.403561089962494,3.79681769697986,-0.730991284760393,-0.0393865657097059,-0.0035155529264327,0.148971305352079,-0.304128280847727,0.18239015210656,walk-stairascent
11.805,-1.35671369818002,0.889913185759374,2.5273354116824,-1.31727600241427,5.46530504071111,-2.17459725212446,-1.470362026558,0.563055530306187,-0.717374727705696,1.62231559199605,1.97317427313798,-0.665720118515966,-1.79008129425443,0.0735077793452076,-0.720838387302346,2.94605826102404,0.618035929293581,4.15927669598279,-0.698267949790107,-0.0040680613523617,0.0036368271638871,0.0895971774322439,-0.136859547450416,0.132485077227605,walk-stairascent
11.81,-1.32316003310569,1.09843414276593,2.74166247153596,-0.669897934376249,4.55579703870535,-1.70979871075968,-1.29361295245004,0.52227227295196,-0.765695622858505,1.08220493102725,1.93071635545047,-0.565769954580342,-1.60574314311394,-0.0092652713106112,-0.600483951818908,1.88481730326927,0.708471446703062,4.35904297480126,-0.706770783260871,0.0147350588619138,0.001419993427232,0.0320876930909232,0.0452681735037932,0.0639337354446284,walk-stairascent
11.815,-1.55482775737946,1.65742064565818,3.01611505076391,-1.64198649639361,3.1480529295282,-1.28195223056968,-1.18060175771522,0.394383324279059,-0.766702629529676,0.544948031122069,2.02606991942813,-0.516697287197621,-1.60595231879833,0.0252983529636696,-0.447536443100655,2.11879547140515,0.477437123119051,3.95912086880266,-0.747022722120776,0.0307200953754993,-0.0159544159703459,-0.0164908200015439,0.194335857381839,0.0315515398979187,walk-stairascent
11.82,-1.87057219210182,1.65507165618773,3.46032749840599,-2.09037641628019,2.00823253077499,-0.746986024352411,-1.1671475018125,0.228544828660156,-0.909872498316817,-0.115009011736285,2.03606429996131,-0.50161935092726,-1.75898529141045,0.0234059823749207,-0.473333524554221,3.3226712663383,0.283719365781628,3.27650505930044,-0.780392671344273,0.0530157561524652,-0.0412411100571276,-0.0268417749805941,0.275665076912491,0.0383683323356125,walk-stairascent
11.825,-0.980079362975386,1.37038018238445,3.45003228011976,-0.789597411361355,0.57383875665228,-0.0924802128072061,-1.28683188086757,0.155082424663337,-0.94443256606749,-0.589707323963879,1.8820141835425,-0.644696978300756,-1.82680396201659,-0.156931386245918,-0.706534398822401,2.76470136098663,0.733401821605796,3.12621246635216,-0.809932813165877,0.0714829773217319,-0.0584703148211657,-0.0086094007124217,0.265224033936296,0.0748330779118103,walk-stairascent
11.83,-0.634348720891018,0.989778307491154,2.45801366731966,0.096965052352043,-0.222890352993204,0.31954244475244,-1.32487480706747,0.145095537428848,-0.686213912234844,-0.713001906239413,1.46388282958433,-0.679507898287987,-1.75783639107013,-0.274013888950928,-0.700343924158039,1.12037111510896,1.03764078215446,3.34138261254896,-0.840170994023136,0.0884295956351396,-0.0801979470169615,-0.000647641547099,0.191166214227383,0.0990311268327943,walk-stairascent
11.835,-0.411880247022805,0.740829098231969,1.68049647727838,0.386161419119679,-0.705951168534366,0.426878160053858,-1.36433047625107,0.261620064744973,-0.315435388464144,-0.582460988712216,1.15114078928695,-0.617441907977258,-1.65957489084168,-0.145011969170783,-0.387496811548403,-0.604507728900727,1.0033160719712,3.49209788701891,-0.878270369479216,0.100362063990249,-0.0944599920436737,0.0159336744066366,0.0913523386319186,0.112397602322983,walk-stairascent
11.84,-0.261091287122707,0.460599049837157,1.13598725140775,0.287349203553879,-0.897329455698637,0.414591591135673,-1.31514028411259,0.342235765451639,-0.0454871850714421,-0.425487184118578,1.00137395853875,-0.300141211355987,-1.65560009492311,0.0074578255388824,-0.241695401917259,-0.363941909751939,0.765566118739303,3.59005947788248,-0.931142320090547,0.108744347748475,-0.113551430636667,-0.0391639710070194,-0.0070218855113124,0.157039667061432,walk-stairascent
11.845,-0.192489119336625,0.144524791761667,0.911792649384618,0.291813557622116,-0.89081586760982,0.258397274165402,-1.22507651438545,0.358407871268136,0.016235463794038,-0.473805852017372,0.918908800347537,-0.0781236637736586,-1.6985756357281,-0.0163601913498104,-0.207665191965232,0.13584735304873,0.75218630923121,3.8924281817097,-0.967334723191052,0.11238418349524,-0.126470496460487,-0.109850569497205,-0.0852883074985518,0.214493026098647,walk-stairascent
11.85,-0.187283365958921,-0.0256873868305211,0.823646806557982,0.558967979272224,-0.868149931032829,0.0127977577784182,-1.07034069440215,0.265844486051244,-0.118786036550257,-0.607848277701638,0.789222317535443,0.136026419784311,-1.63854616088782,-0.112284572138818,-0.214961538677385,0.126215797604658,0.848469989775455,4.17242254157425,-0.979795479192527,0.116378290366345,-0.128992089026776,-0.164399141582486,-0.111343972336225,0.268007711466142,walk-stairascent
11.855,-0.290327948588279,0.0562725224853198,0.850462786571423,0.841480653499654,-0.903659870402181,-0.178201355034993,-0.907238623363948,0.115969387087159,-0.277244317942551,-0.720153434696248,0.622837926247318,0.337647601313214,-1.58002548411124,-0.178390231797574,-0.156294249141219,-0.0968594298431947,0.866743014535591,4.24588603047823,-1.01096243045764,0.129119715908192,-0.136080329044341,-0.199909465603099,-0.132172718387864,0.295437544584274,walk-stairascent
11.86,-0.335795230939954,0.220267211448574,0.912820227354497,1.07549531942827,-1.01878956836202,-0.363215166546251,-0.773536238178369,-0.0346775690595039,-0.405676605994133,-0.676676832293979,0.477795995184844,0.549023359026729,-1.57713607298487,-0.179013578619507,-0.054868578013269,-0.454715693348996,0.771252073085476,4.30044318258858,-1.06168503702172,0.137179523812026,-0.15469087964517,-0.206693242890954,-0.07907175257898,0.26592689800142,walk-stairascent
11.865,-0.298320072377395,0.366720020570239,0.959913117455063,1.21378664910366,-1.17685610786877,-0.456198469903254,-0.719777504944503,-0.11349921572929,-0.45547789502639,-0.498873329535872,0.279577504342212,0.757100018408053,-1.56452258784721,-0.155796893041776,0.0355269157501307,-0.849517637594532,0.621271702473146,4.45114185120049,-1.11141154512279,0.128228283510695,-0.171411012509876,-0.209104239211245,0.0335943123042812,0.203105620771547,walk-stairascent
11.87,-0.222531041019445,0.519594980374876,0.919035379042662,1.27523973938961,-1.36903750647563,-0.420018808549473,-0.659830597483222,-0.150254371026298,-0.444291910911788,-0.254750427664015,0.0095491039506444,0.905466452448402,-1.49217212134062,-0.158366742377853,0.187089666419267,-1.25278355048253,0.381533265847463,4.56724994214753,-1.14008902609284,0.129927210139255,-0.173594532655181,-0.23558169748611,0.157698994021387,0.131950558471064,walk-stairascent
11.875,-0.183444070787881,0.61650368374906,0.838293442557256,1.27508444025011,-1.50262335357838,-0.316614407623395,-0.633383830991368,-0.161697580984553,-0.386532627592559,-0.143382172831831,-0.181696388318373,0.917706396839627,-1.41356434089281,-0.163173230243968,0.261492849557431,-1.21805959496754,0.137801449899217,4.44490781075055,-1.14335954214044,0.115178625361261,-0.175243731158636,-0.255324188399835,0.255593440280979,0.0468771630590352,walk-stairascent
11.88,-0.145591664121547,0.669593238043186,0.716837282511136,1.24508578251597,-1.61945125611856,-0.149406653047212,-0.631387056988713,-0.159193678345232,-0.343813391948887,-0.102600977168732,-0.326670140972631,0.912209622918684,-1.17784899512958,-0.218987601867518,0.358781915183335,-0.94430469956635,-0.182279366577045,4.04835361343133,-1.15164296850221,0.103129083587927,-0.175757955275705,-0.282253371848789,0.298679010369485,0.0020658935587055,walk-stairascent
11.885,-0.118404807578666,0.688361268672664,0.614768758047066,1.25788020230342,-1.6930834721291,0.0269262361332377,-0.611262510594364,-0.158249795666497,-0.302927090317006,-0.0386136547065239,-0.496156273480477,0.976285503440768,-1.43687419650753,-0.133368043180003,0.452914094146228,-0.328465135480732,-0.613614903575698,3.30001362305465,-1.15105542157974,0.0792065179231059,-0.176577843795814,-0.348442128788043,0.34374229986119,0.0042958603061005,walk-stairascent
11.89,-0.101271585076594,0.694056861454996,0.549298519248986,1.28215438074462,-1.71157824319795,0.235082423077046,-0.662950795575684,-0.162230869400027,-0.272304257345205,0.0164736694785798,-0.656619301144696,1.07006039171486,-1.42234843380032,-0.111957947888577,0.266540110668914,-0.314636300601859,-0.746184955495005,3.42760981916896,-1.1387530610793,0.0459014420713874,-0.164300471003116,-0.375510297112484,0.36211611901548,0.034734534697878,walk-stairascent
11.895,-0.110353967402245,0.701812075414961,0.549048762810795,1.33965796800302,-1.72128381477095,0.518370990924074,-0.630862627597485,-0.179989432311965,-0.271100765924016,0.0675470983514177,-0.778539778156918,1.15948342837573,-1.24358430129936,-0.146773090192887,0.311862752898787,-1.07957011818746,-0.683128294248909,3.79499375171798,-1.10966022839287,0.0159566831648182,-0.150316445725838,-0.328368366201534,0.359929981708995,0.049545741968951,walk-stairascent
11.9,-0.150102784269156,0.695539195862404,0.600797786795393,1.39974638757151,-1.7410401347531,0.765968352454561,-0.655022344704486,-0.177136862449584,-0.27114998208858,0.111408318448283,-0.920982279675524,1.23002671382357,-1.27127990491911,-0.0678204973642726,0.395609741111194,-1.29362505189531,-0.788990550828403,4.00040388025276,-1.07804953326011,-0.0184068447575205,-0.12517417535177,-0.241714873189475,0.349532980554305,0.0572071224451065,walk-stairascent
11.905,-0.212577483347278,0.674373573678351,0.697445689482211,1.46087330684071,-1.80503026846304,1.08355789861527,-0.638702327163435,-0.143703387012962,-0.320761043141469,0.22047426343147,-1.19686025771811,1.36899649902543,-1.30335075651424,-0.0302851230493916,0.464081828456229,-0.988095638348469,-0.91280801762494,4.15063983416595,-1.0650258805734,-0.0459980527069102,-0.101966278868082,-0.173808594792698,0.316815768963061,0.0677142038161367,walk-stairascent
11.91,-0.245007594309922,0.608546468014432,0.771061774099786,1.51334109279644,-1.89368948049176,1.35751632378723,-0.568259914266874,-0.116317989097559,-0.317363605582623,0.186318685698912,-1.44278608862362,1.4160261682605,-1.16889110144015,-0.0284430453899141,0.440413742072008,-0.111093404422898,-0.920717047941478,4.06487287295446,-1.04604754375547,-0.0852944879674848,-0.0834121624818507,-0.10604192747445,0.272284611813742,0.0917034898528275,walk-stairascent
11.915,-0.258968928795483,0.525200992226937,0.810214431971075,1.55533464325648,-2.02752132866063,1.60134152706135,-0.504158872087095,-0.0524387028124194,-0.330547771046187,0.0312628312235917,-1.55953968340746,1.39992620161428,-1.14316676672132,0.0132290347375335,0.373582637968114,0.455563695665513,-0.753606040346433,3.90140021926515,-1.0177031308669,-0.116978896437685,-0.0570519176240143,-0.0165194166199472,0.245981156826019,0.142528664140587,walk-stairascent
11.92,-0.252014759891894,0.421716836753822,0.798383555021516,1.57424127739282,-2.17141387949061,1.80957476199176,-0.506149021247696,-0.0027367982063252,-0.343790984142148,-0.116580343704918,-1.69206980148597,1.44044288124429,-1.06455447100938,0.0731842554698239,0.348062675660858,0.791524522024885,-0.569762755882041,3.88281496016582,-0.99034540916856,-0.14016721909793,-0.0314074049662239,0.0561626119221467,0.254908277000793,0.175400038873975,walk-stairascent
11.925,-0.225883038995667,0.307523496970683,0.764991387316471,1.58644902493273,-2.28385064431601,1.93009177488942,-0.536633723288351,0.0506579974688375,-0.318247070101453,-0.275214797887244,-1.90216600491103,1.5095496089835,-1.00623624426759,0.139302166750961,0.335682955424002,1.11372772811372,-0.437839588688848,3.9352367750587,-0.949778150610874,-0.16218915916159,-0.0084601780947403,0.137869145653939,0.282221572230586,0.188606091815935,walk-stairascent
11.93,-0.210425187718932,0.16338600093543,0.727017716288716,1.58236074447632,-2.41087601519828,2.01859713452735,-0.53112255545177,0.0758760974894702,-0.282521312462808,-0.482856696316484,-2.08055423168305,1.55502226402765,-0.962930827153522,0.167499077620781,0.312067224963584,1.3234104330324,-0.30264491658551,4.06867375304705,-0.92520928998647,-0.180369064855366,0.0079379723748542,0.178870944304578,0.327101253445002,0.183291773935583,walk-stairascent
11.935,-0.219503623521362,0.0700458092564425,0.705691964520817,1.57249035702471,-2.50960685779757,2.03191963165659,-0.533480134391026,0.0795864427095953,-0.267174359162362,-0.753878091443392,-2.20255036419183,1.53135268677349,-0.889091381289947,0.171016493946303,0.282423318135748,1.33428971691388,-0.155680718747808,4.26684838318653,-0.894001666226392,-0.200849783792609,0.0317232544762041,0.232751033424495,0.385127810955947,0.135058689739073,walk-stairascent
11.94,-0.22584613762772,-0.0164542031623835,0.712730975998746,1.54351974655883,-2.59737940047587,2.00681855110491,-0.520944406926288,0.0443755807541736,-0.283935140470767,-1.01992724564823,-2.30594334373739,1.50440312302819,-0.790003018395984,0.175401632786045,0.2517929772136,1.30107013966851,-0.0565284277585116,4.36749324982579,-0.848205741054304,-0.209008406558336,0.0481451535654914,0.251206853945331,0.407334931944388,0.120735242962837,walk-stairascent
11.945,-0.236927357255776,-0.0726847448107563,0.719189098874565,1.52399142925106,-2.72495794208499,1.94103553456422,-0.51446390572694,-0.0184073006385241,-0.293141427219544,-1.17846055494508,-2.42854975259559,1.50286166007631,-0.704280419143835,0.179810800531518,0.233765893125693,1.33300889762424,0.02051693879597,4.34023787834487,-0.799425805713337,-0.217659690866354,0.0532244936690139,0.267077035447915,0.420904815711381,0.130483225542201,walk-stairascent
11.95,-0.246397742460177,-0.109725097424559,0.718231803677064,1.49055408137941,-2.8054797502673,1.89053756888279,-0.490433593617928,-0.107482925637418,-0.293228971529294,-1.21964251485985,-2.61415651200587,1.53218268839043,-0.663421056278044,0.219023466821856,0.164663636713697,1.4388722228715,0.0666654027959361,4.25437066769142,-0.764840200674481,-0.213225349241859,0.0474203670469914,0.275191912694953,0.434122115373611,0.159039603851412,walk-stairascent
11.955,-0.254378859352683,-0.10981668073528,0.703156472718702,1.44709657487179,-2.95314593507943,1.80813247851622,-0.433038081659768,-0.174829637047392,-0.29394230984247,-1.22263725054965,-2.82896055114835,1.5299588927053,-0.573979590521373,0.207491349686276,0.113931404434961,1.44670856271471,0.11957777379919,4.17771908945506,-0.73646697362264,-0.204623882871972,0.0434060839120143,0.29740843622665,0.43451683351021,0.181030538644792,walk-stairascent
11.96,-0.28663813890926,-0.132228840572238,0.690486823191291,1.40685237806141,-3.08132023341744,1.72997556947913,-0.396621414505899,-0.219040011469531,-0.297994891741607,-1.20726452037685,-2.98170248216992,1.50636599227779,-0.501780527553408,0.208828835173498,0.0609578043980168,1.49127921276851,0.14509503400658,4.02243115953277,-0.712405088825781,-0.187626872329551,0.035440790655602,0.320142238252333,0.438163363639107,0.168098444924392,walk-stairascent
11.965,-0.305014775735389,-0.166633018162929,0.664820940521935,1.39080974184176,-3.18746434878364,1.66950536730266,-0.354091374810654,-0.246607130813792,-0.317426146635858,-1.14577254631615,-3.13200104523895,1.49633716857038,-0.449222639437765,0.207003815534549,0.017820941149172,1.60618190764625,0.144638208961115,3.86152682440814,-0.681204887088614,-0.167250800642964,0.0256207398930604,0.326961424065217,0.43433076147786,0.13131358272186,walk-stairascent
11.97,-0.328395059568576,-0.159705854986494,0.630905980971703,1.38074762065561,-3.2759544649749,1.62897216627992,-0.336726100320243,-0.25605994170223,-0.325336094041255,-1.07579945926866,-3.24098503361237,1.49085211753845,-0.401863406798876,0.181668768114876,-0.0358376517308192,1.80105814265455,0.132801752717655,3.72725397845198,-0.669953320848847,-0.13500535363176,0.0098918800243317,0.329032568127445,0.436884702100415,0.0770926484169469,walk-stairascent
11.975,-0.376988782182066,-0.137786809748744,0.616916333178081,1.36985985771668,-3.38250425474984,1.58938309809432,-0.327623612389438,-0.257040839601223,-0.338737524393747,-1.0014541457652,-3.34458420076307,1.49162722583597,-0.333968029007969,0.12028446543111,-0.0972406185462043,1.94721854156323,0.10141713002873,3.57734410567089,-0.666162710245504,-0.0979721287962041,0.0052806991366676,0.30562247744255,0.445609472474894,-0.0019518048050226,walk-stairascent
11.98,-0.422222244518757,-0.106434622767164,0.607000287252424,1.37787324043629,-3.46347199991451,1.56446148528161,-0.326249747008417,-0.24982105293581,-0.35145965093774,-0.939529102149617,-3.42452499712329,1.49481683137055,-0.29270799645349,0.0809714013098536,-0.132826189271486,1.99867533237071,0.0830305212827482,3.4385128912622,-0.667746206017495,-0.0764042614698405,0.0003643069675492,0.276592887453739,0.463076008279367,-0.0629736019680385,walk-stairascent
11.985,-0.455045366566399,-0.120273542302743,0.608417159300072,1.3864238013687,-3.51477536550893,1.55788407147523,-0.327863568727334,-0.250907104272139,-0.367674505746702,-0.892947065319414,-3.49306711291248,1.49947502206689,-0.266931537127759,0.0598815743169373,-0.159558110541581,2.01081247477668,0.0560591362063001,3.28882173143382,-0.672522232400937,-0.0617693932409878,-0.0023154449831914,0.253972602138241,0.480373869224572,-0.13016913356696,walk-stairascent
11.99,-0.516538264702266,-0.130246586544943,0.572196279223639,1.43699416082618,-3.6521172929455,1.57281003151762,-0.329574061980755,-0.262166950759458,-0.414278034270527,-0.845113753085438,-3.59729004496446,1.50636794614258,-0.238753107046888,0.0478332551235542,-0.201587428206398,1.93791558194765,-0.0145335481979732,3.01590814859962,-0.690124772966487,-0.0299372589379451,-0.0107738116045423,0.215715222371672,0.504564120112568,-0.225135034041556,walk-stairascent
11.995,-0.562815064540403,-0.1245443797528,0.510045071602282,1.46041214946116,-3.7820488693622,1.60169666697371,-0.319038784371476,-0.268604109110693,-0.457306903618273,-0.808422803011112,-3.70548971763626,1.50158037444999,-0.1993900551928,0.0591937018233318,-0.219755112866042,1.82126992221152,-0.138855624683724,2.66573363262329,-0.711303760954016,0.0029031466395596,-0.0193813693065768,0.174094404907067,0.514161758203415,-0.292295555908674,walk-stairascent
12.0,-0.603055480205528,-0.149577831872817,0.405671129763837,1.4810663759909,-3.84191096478845,1.64326038477289,-0.290162465429178,-0.273660497163218,-0.46798007341822,-0.774421245734033,-3.75977697816067,1.49329555034637,-0.212059970534183,0.0945736314430815,-0.233411164117659,1.78584942520309,-0.253871342609978,2.40563435171751,-0.738981293598485,0.0322424137703508,-0.026469595956557,0.142828474491943,0.511408529983169,-0.327758012966052,walk-stairascent
12.005,-0.633046677867083,-0.159648218103478,0.350689447551095,1.48104325482336,-3.86566976076749,1.67012515498474,-0.253706435288196,-0.284093859911969,-0.478638382959771,-0.7771026688187,-3.77945890643919,1.49378915232474,-0.207480055788274,0.111026199663189,-0.264440902107918,1.69168424522308,-0.336881831633772,2.1756079291272,-0.763427373553513,0.0533148284630659,-0.0281812448788984,0.107865621961428,0.49685008223307,-0.343514040975683,walk-stairascent
12.01,-0.689573703865663,-0.156846339420892,0.273220264901141,1.46048760949786,-3.87881846204863,1.72288684298093,-0.216428883640472,-0.303044240119865,-0.508752025475772,-0.793134473551881,-3.79617666559007,1.50170003600865,-0.209087631958583,0.126210305906541,-0.29357213195645,1.45173161018649,-0.385345470341235,1.98715889244499,-0.798246856381217,0.0712610623931178,-0.0316512380750784,0.0417079822373594,0.473736341445937,-0.326644643558733,walk-stairascent
12.015,-0.735621125944092,-0.140031378599355,0.185772891411175,1.43099607051064,-3.86825902346558,1.78803275494328,-0.180215415104662,-0.31898076964739,-0.536673353276345,-0.821466653241277,-3.80581171975342,1.52278933606321,-0.178208818357418,0.133378222353314,-0.260108921911464,1.09392720970562,-0.415030571273899,1.87239946494848,-0.835458319536275,0.0778325114683936,-0.0358218079125083,-0.0095799678558784,0.435476361226972,-0.301773220284699,walk-stairascent
12.02,-0.790818235169798,-0.0813514796062445,0.131883834591163,1.36558251192777,-3.80943177404502,1.89558299881809,-0.122585216976037,-0.351658444609334,-0.577315092134584,-0.894860159022233,-3.80828040721807,1.51918552751908,-0.156516424480922,0.139271294033835,-0.244318295130538,0.941041469447573,-0.446262124884572,1.78226071592965,-0.874948688339346,0.0803758724066609,-0.0294565887699947,-0.0434470476346536,0.386466390681273,-0.256758726429946,walk-stairascent
12.025,-0.88495623354725,0.0182142878334858,0.0694719813468503,1.24455224705463,-3.73452069529632,2.05734838581616,-0.0870529909375311,-0.371682515568775,-0.619616347644641,-0.993060980974054,-3.79400498954201,1.49616579759227,-0.134169887038232,0.148124292696196,-0.243511447542823,0.675325608873128,-0.422965806276898,1.66965771433071,-0.909628484826777,0.0732124739536385,-0.0313109724428727,-0.0480746139150728,0.330576959852914,-0.20586856552222,walk-stairascent
12.03,-0.9682554232376,0.0404186245703187,0.0156522509728644,1.12946463344033,-3.63276184318002,2.23779750247364,-0.0550883332196332,-0.39411975081838,-0.683222802338426,-1.11487546931081,-3.79381201062383,1.47759577162219,-0.0915849298045893,0.151003110018207,-0.225420570660623,0.448470527837689,-0.392383507744688,1.60763153922127,-0.952628265021894,0.069317255944371,-0.0225407236760628,-0.0321110668957542,0.249611119055329,-0.152547101277715,walk-stairascent
12.035,-1.03856799853145,-0.0230612632540454,-0.0439962366779209,1.01042289216933,-3.45898192028056,2.51236617326737,-0.0335383193453601,-0.412606785848816,-0.738787598985362,-1.24895551203676,-3.78909780414662,1.43742684936188,-0.0045972273813753,0.163240529757606,-0.190684108666288,0.184500711627767,-0.338235273260527,1.54042789298061,-0.985978038181862,0.0654698883617916,-0.0171622622522215,-0.0145585902184068,0.180895711731601,-0.112426072294652,walk-stairascent
12.04,-1.08067950254761,-0.103200025227312,-0.0957718504521537,0.886838369274421,-3.26346577429119,2.80393202054747,-0.0223096382541313,-0.412749943020831,-0.787721391924012,-1.3740182787336,-3.78941950229044,1.36712522829772,0.054583432206069,0.191377755070539,-0.138357571722285,0.0804800549646203,-0.342772395443496,1.40163343061483,-1.03825826263609,0.054105186997339,-0.0178066040988382,-0.0001997427775128,0.0744194191773438,-0.071710427915488,walk-stairascent
12.045,-1.15228414859622,-0.222854755939041,-0.127295268403865,0.792247222136329,-3.10123293141181,2.96336357068158,-0.0144515139140791,-0.395967949868556,-0.835379030192447,-1.54260231462863,-3.74407653609382,1.24812373590149,0.0896403659728368,0.219233297645922,-0.11175088784126,0.0790966060211632,-0.346598892103241,1.22224764541815,-1.05664725468862,0.0413802827615841,-0.0175421814583855,0.0067094204632775,-0.0245466257897571,-0.0416378540497201,walk-stairascent
12.05,-1.23529545928619,-0.432265305656125,-0.14468353634732,0.660772033199248,-2.86104479834489,3.12578862387806,-0.0221542002447892,-0.37720031835765,-0.881798832325385,-1.69477478733774,-3.67472648532035,1.14977240167613,0.123437035870117,0.251203461876832,-0.0848539708955869,0.0392733644443339,-0.330523017722867,1.03954930006898,-1.06124920896,0.0192027158956341,-0.0224247273958742,0.0787968370541523,-0.116690777251194,-0.0099513049232141,walk-stairascent
12.055,-1.28635188434517,-0.586594670771379,-0.146032910502288,0.588048927224405,-2.71185588347642,3.18655151485876,-0.0504408081712993,-0.373167678434825,-0.953371335650946,-1.88039957447009,-3.58588356255236,1.04217538014074,0.139686804118116,0.292445845532677,-0.0603902735908474,-0.0071847772209759,-0.322513202019368,0.880000583825056,-1.08659227483174,0.0088136400354634,-0.0312292077765799,0.141355144260509,-0.161549780058145,0.0269026062429868,walk-stairascent
12.06,-1.3610039821599,-0.813284466844335,-0.146884425008674,0.499517461334051,-2.48636239938639,3.16558137275176,-0.0683835342266784,-0.381719732814424,-0.995185021003728,-1.97530884532827,-3.52396828161349,0.977954452520486,0.145974905604113,0.317228559807796,-0.0518188417532134,-0.0131807403544404,-0.323740150232165,0.781157527772199,-1.11375634371338,0.0040512467659473,-0.0324574203319667,0.161138217074434,-0.173486532549935,0.0372824335268927,walk-stairascent
12.065,-1.44201008604004,-0.947049280981467,-0.0969044933431115,0.393232662847756,-2.31406494312257,3.06359889660905,-0.103319181553,-0.42136745550089,-1.07392140358076,-2.07477595994893,-3.40000870139699,0.852659488267171,0.147596864292805,0.351030488252377,-0.0531971941997188,-0.0177492999873542,-0.336068787842739,0.652237662939244,-1.12265301876929,-0.0122050548804489,-0.0362046268429994,0.189439043282666,-0.177156345871377,0.0075132813241765,walk-stairascent
12.07,-1.51862202844296,-1.06287175150628,-0.0473130046939939,0.295640805851915,-2.19774623365538,2.90203892400856,-0.12126046781505,-0.455052317761508,-1.1448940662326,-2.11082212785247,-3.30324651131964,0.749346906227667,0.140951418465497,0.390367842836984,-0.0558195732877454,0.0006038735527586,-0.339885549570519,0.507674234525693,-1.12253567913907,-0.0261614126205815,-0.0406688907402592,0.20578572669719,-0.157856867751714,-0.0469647611721379,walk-stairascent
12.075,-1.63954857702736,-1.18502026421044,0.019623706615674,0.192727794685213,-2.08348586968951,2.64445097716714,-0.130486902954593,-0.499164130543695,-1.22536869407499,-2.07475630089605,-3.18226081349825,0.637081719642223,0.126875274900727,0.428036982719388,-0.0676662017838754,0.0064574443989161,-0.356355309981994,0.365374070833657,-1.11715651055223,-0.0492783288761347,-0.0430520020736479,0.182337762678589,-0.121761983141181,-0.077172720555699,walk-stairascent
12.08,-1.71155818993589,-1.2250025501932,0.0234920979365424,0.133790524386338,-2.02845643628161,2.40857258282227,-0.139678417905345,-0.531318959231155,-1.29298622563895,-1.97415625227524,-3.03088544021611,0.505958077937506,0.106672156375368,0.461426703077064,-0.0817054727139439,-0.0351383205660529,-0.388825472537549,0.244062175098657,-1.0948920801413,-0.0773690898893859,-0.0455415917729475,0.158489974709464,-0.0732861766263353,-0.107430452452543,walk-stairascent
12.085,-1.79124396525285,-1.28115921450263,0.0061214430683654,0.0264051587493324,-1.97768866528654,2.12965134791454,-0.142241471244233,-0.55929612367913,-1.34526150999028,-1.85384851397922,-2.91001729874872,0.413457440365031,0.0715688832286768,0.524462339988376,-0.0801782958776541,-0.112195024228593,-0.421401429614178,0.0801946794882037,-1.0855366157344,-0.0904885631140942,-0.0475970866234134,0.130941690075129,-0.0418405473500105,-0.102820497998411,walk-stairascent
12.09,-1.85214609465995,-1.31810007918239,-0.0086277212613046,-0.066628066072065,-1.92685049300754,1.81968807457881,-0.149984288980547,-0.585477107902999,-1.38190025803177,-1.68203322474109,-2.73631207242306,0.295879225240918,0.0359720454972068,0.579531807074206,-0.0597837865271347,-0.0853632222277356,-0.456628363587872,-0.0798660024848293,-1.06583807194045,-0.107074384385208,-0.0501430497065947,0.111526773472312,-0.0220948390134945,-0.09530262431189,walk-stairascent
12.095,-1.92147825332622,-1.31825339596483,-0.0006122536179595,-0.127671956718914,-1.89035896034814,1.54264984408582,-0.156174391907948,-0.60385041346442,-1.40981454817423,-1.52980571269987,-2.57765529274938,0.198085549920785,-0.0182101050815854,0.639750098201913,-0.0352007561058844,0.0642358103921394,-0.513895347749293,-0.266300163098559,-1.04498383279922,-0.119522667803885,-0.0454490672743434,0.103562139759135,-0.0181207183216808,-0.0847988402600988,walk-stairascent
12.1,-1.96996723903839,-1.30585553438385,-0.0262359399664148,-0.206064011300142,-1.85350474226909,1.21725802417998,-0.155761445406917,-0.614257655529169,-1.44342189807672,-1.33236611336023,-2.30799354521244,0.0697389924538726,-0.0561338175154679,0.665474480411846,-0.0189026256555821,0.206628645486508,-0.568637926822452,-0.394986375837308,-1.02615062881771,-0.118226964506923,-0.0377875293857467,0.109382409501661,-0.0296907931543475,-0.0698488269572776,walk-stairascent
12.105,-1.95432251035468,-1.26716527941416,-0.0975208675807999,-0.262493422658651,-1.81046999456822,0.972447405212545,-0.165091255776836,-0.627331964314311,-1.46689210728729,-1.17702914024541,-2.10187684766069,-0.0167814045039975,-0.114636443869844,0.693055820878178,0.0063156071532973,0.491234481860132,-0.629350672033534,-0.61417502926083,-1.01248549046751,-0.113181747132105,-0.0223877227454234,0.126051290315391,-0.0500230533168843,-0.0490886798468899,walk-stairascent
12.11,-1.91360574156039,-1.21313651780312,-0.20082137030254,-0.307952115643632,-1.7199924421704,0.711985274460477,-0.182016112736296,-0.637011626044278,-1.47272249121205,-1.02924893326084,-1.84159949041193,-0.103469026434014,-0.157626709862495,0.698494413340967,0.0270724968022975,0.685380868635691,-0.6769119418541,-0.76237065968371,-1.0002281211614,-0.0939141599649161,-0.0052686469322097,0.180930058501524,-0.0876639315491263,-0.0509168429746892,walk-stairascent
12.115,-1.87824151207307,-1.14382865949005,-0.282775827924522,-0.349557354586236,-1.60049759806251,0.506042444244567,-0.198863838216223,-0.649070233649568,-1.46551177888424,-0.907548044344,-1.61470522401614,-0.181753434946291,-0.208075987675321,0.700723176935206,0.053980749542185,0.844846464174533,-0.718614381930578,-0.904431867439869,-0.984851140235349,-0.0610148368362458,0.0278273900425465,0.240932862556232,-0.11766367263993,-0.0468469691461838,walk-stairascent
12.12,-1.88200054374939,-1.03396981419223,-0.331525464637482,-0.424760168662717,-1.45193114664092,0.359340708879691,-0.220832791417669,-0.665411063159785,-1.44485766230675,-0.782929956396281,-1.40941122907228,-0.251964762226412,-0.240199674509184,0.686339755764721,0.0863796381420501,0.94532704149639,-0.746913091479648,-1.00352614156781,-0.980234370117772,-0.0287630859417464,0.0656068601434488,0.296161765656866,-0.140558473606305,-0.0422455805090723,walk-stairascent
12.125,-1.90136766359072,-0.904920261109108,-0.372779523741972,-0.536599813137692,-1.250252324749,0.246957777759471,-0.235460202988817,-0.680307571491056,-1.43096095752534,-0.657523625719832,-1.16264530691334,-0.337023709901621,-0.272022756204172,0.642081546301406,0.120532008190235,0.953936238100033,-0.754816463991038,-1.08034437787457,-0.971994418825338,-0.0064098584294529,0.0992993949616549,0.341812772200928,-0.153802832227151,-0.0195797298937646,walk-stairascent
12.13,-1.89206339458161,-0.831609269840248,-0.398397293780358,-0.633722471316802,-1.06522890171034,0.194486492333074,-0.254106052040191,-0.683977902850487,-1.43304051260661,-0.535746858862533,-0.975512803357897,-0.413336314480545,-0.285741747603191,0.600823290628657,0.152543053859776,0.870973890899614,-0.754786099911108,-1.13013244947686,-0.964718357074213,0.012453143465224,0.129394329803514,0.357525382379673,-0.170568155263638,0.0348285654174098,walk-stairascent
12.135,-1.86214918188265,-0.783504448574683,-0.416065758756419,-0.704802804964017,-0.827692346791964,0.179696085007144,-0.272882641472793,-0.670578136318653,-1.43638544501208,-0.396430315703398,-0.80183008727855,-0.494062820880261,-0.290960915507991,0.556659293372504,0.19649815099279,0.741552298031753,-0.745012627281249,-1.1869552128762,-0.957421146138654,0.0173310939575566,0.149453194812126,0.343685532222761,-0.167928706823331,0.094788157910001,walk-stairascent
12.14,-1.82710358701499,-0.73326853400832,-0.434065193618137,-0.762491966902515,-0.604816984142421,0.156087695038756,-0.279496787187463,-0.639466430526003,-1.41902222262954,-0.24989348045713,-0.635380632796571,-0.568649915995165,-0.294962400113269,0.520006150156947,0.221306321264422,0.63020499133228,-0.726643804274078,-1.23726104525848,-0.953601403872703,0.0271672787300611,0.156634656486551,0.321605265182937,-0.154247444876569,0.177531065710864,walk-stairascent
12.145,-1.78615203170888,-0.692910441833726,-0.436901864082185,-0.823613181931083,-0.348763015500533,0.151865316234965,-0.287267408186522,-0.583421420424879,-1.39407959234666,-0.110589823910435,-0.452587864080961,-0.647980618707924,-0.300122498423424,0.481103787449982,0.238539119045757,0.496062724975567,-0.701978579993926,-1.29542747636503,-0.940712688214744,0.0228336121990048,0.157750617469434,0.290895723532381,-0.14786794014142,0.225531018716746,walk-stairascent
12.15,-1.74151624169348,-0.658498996849086,-0.433106666585621,-0.876041931824569,-0.0962165793251327,0.134064227511539,-0.295997283861567,-0.533652056221947,-1.36567380008839,-0.0152302237058814,-0.300854780015135,-0.702272171563999,-0.309899470815811,0.450484798160895,0.244207407492496,0.342374325431543,-0.677513858491339,-1.35582307102406,-0.936628483971781,0.0213179087282819,0.150367307365066,0.262023674462036,-0.147308186703421,0.257482009265283,walk-stairascent
12.155,-1.69386637956855,-0.624302132650708,-0.421476882176158,-0.914209315112754,0.166599077362099,0.0934703533544897,-0.30503962892316,-0.464904514871929,-1.32598727168243,0.0754266734456032,-0.112504708840208,-0.74824652360537,-0.315271432624055,0.415001162111175,0.235110454774323,0.188825143257696,-0.650703001596385,-1.40859396161918,-0.926984031902134,0.0193774416276029,0.144920320266204,0.248363309794639,-0.144813405280722,0.272158229294835,walk-stairascent
12.16,-1.64554603671892,-0.585745652325371,-0.416357855393595,-0.938280574662692,0.3738542796947,0.0499438869557442,-0.304943916983947,-0.406391938610603,-1.30547549687345,0.136450390168172,0.0516684615722869,-0.777844367429823,-0.326664017537941,0.38392727640669,0.220160497787668,-0.0050634454674187,-0.6128581808148,-1.47331337956939,-0.920730247680564,0.018084601811701,0.132239552997992,0.255527950683547,-0.131508519671208,0.280117171307885,walk-stairascent
12.165,-1.57171246252377,-0.534174960344032,-0.436433812998044,-0.953365910727748,0.586975460144681,-0.0131843867910909,-0.305986752512346,-0.341490434431937,-1.2713502127562,0.172379119559179,0.192085083060188,-0.789045418852302,-0.339041984319387,0.363696118600689,0.199567382638795,-0.117093992228141,-0.572576945445612,-1.53121385044897,-0.920809330780734,0.0240056152492895,0.119234713083632,0.272456027732892,-0.107219920756475,0.293165385846317,walk-stairascent
12.17,-1.4650978177758,-0.474676852390344,-0.518024229148519,-0.946665351965355,0.825924060683451,-0.0769887312910894,-0.299005662639452,-0.280812187645035,-1.21689800604505,0.217264606420149,0.347621848501089,-0.783536893278799,-0.350122898777159,0.359881186607712,0.180856130810912,-0.144375892407595,-0.538811314555414,-1.59860475273932,-0.922076593781588,0.0275127165992296,0.118354210780419,0.282985499120377,-0.0786975667531387,0.320231549130227,walk-stairascent
12.175,-1.36145884530286,-0.404707753057188,-0.606630374129797,-0.894070525593109,1.0687900021226,-0.131750281820826,-0.300419193359945,-0.242269374550005,-1.16277627700867,0.24517658709579,0.493383761777241,-0.773922907923785,-0.369940713850137,0.354699971394836,0.151397320688208,-0.0644831628152879,-0.496073039392827,-1.68030435604887,-0.937501804580901,0.0332705161719978,0.129740821429266,0.278521143506542,-0.0643726412871835,0.364265736394531,walk-stairascent
12.18,-1.2161171118574,-0.280305618478874,-0.732107955155376,-0.792945397961288,1.42253587722496,-0.169795452044541,-0.298361479259541,-0.197998949339528,-1.10917362508845,0.298261901201243,0.597921987120457,-0.742229838414872,-0.386712794666753,0.351327961425756,0.115472545068856,0.0541475165039999,-0.459589277860207,-1.74827226173742,-0.956691500954482,0.0423022679111729,0.136735308218291,0.27539579214576,-0.0639968853018321,0.404614196310234,walk-stairascent
12.185,-1.14561498273427,-0.148983916341112,-0.768807304934883,-0.694527593044959,1.73572012379614,-0.173292822265832,-0.303394939267326,-0.154879220208789,-1.04772236347198,0.327203359259861,0.704026841012894,-0.718472833689242,-0.39737075828254,0.342266483860081,0.0670227892710118,0.157877362930302,-0.406856901213372,-1.83648224244723,-0.989195657485898,0.0540686871380625,0.142483452414268,0.276784165532316,-0.0766282028967273,0.423353816158606,walk-stairascent
12.19,-2.23221459201258,1.61830838482394,4.26442527372613,-1.70570951257366,0.181954720314068,0.117668468275507,-0.28361841580514,-0.138349632374416,-1.09398965380911,0.338202275345283,0.777312724302155,-0.684760096438527,-0.408271245556475,0.327858254689866,0.0102907155659376,0.215974953540789,-0.339588304344777,-1.94569669909687,-1.01849701352347,0.0581393523435601,0.140716599960562,0.273697303975244,-0.089781000050297,0.434023279595283,walk-stairascent
12.195,-4.91705720354189,1.46702091001076,7.59587774886334,-3.74478130558233,-4.20254750388007,0.902807188434762,-0.197286986404461,-0.0465256114395554,-1.86241379894867,-0.104288559320503,0.938773708055838,-0.581306775228775,-0.42195351398738,0.314495609985533,-0.0403049718071921,0.241394508229061,-0.282472257488885,-2.0569048784146,-1.0525953433089,0.0632774535161269,0.138359373137517,0.261443954511107,-0.0915978817446003,0.441453840242979,walk-stairascent
12.2,-4.01279070584069,-0.717326097920685,2.34419087517959,2.12953755320694,-3.19949051341003,1.30463399623628,-0.315213451705711,0.214777618252994,-2.03251450735422,-0.484949501784838,0.958485529014158,-0.371811290328255,-0.44183420361625,0.296279168368873,-0.114340803797007,0.223113129481003,-0.198883690601308,-2.21239965755771,-1.07305330931932,0.0597002747363974,0.129492970892314,0.253569464151434,-0.0873015276649041,0.4521587543108,walk-stairascent
12.205,-1.70918583728924,-0.492401266143296,-0.0106518736819934,3.54547974560879,-2.49491103646139,1.651314764665,-0.394363948231806,0.307107868063826,-1.37102719184992,0.354904698859922,1.0009305883823,-0.507413421808906,-0.464037986960554,0.294065448238504,-0.172880025964689,0.158678047482936,-0.124715846618987,-2.32671746775037,-1.11431670646441,0.0538328353309262,0.108378652256589,0.243028016812044,-0.0644455464766794,0.474929726606797,walk-stairascent
12.21,-0.63126010311175,-0.333698960202239,0.628602253122741,2.62632235167659,-2.77397164003228,1.44537274361985,-0.599293895525078,0.500436352508973,-0.957012383174875,1.27037324697673,1.03922255404636,-0.697558976346141,-0.504010197756334,0.317337847890534,-0.254980030582887,0.0182347974838937,-0.0210465131729245,-2.48010931897381,-1.1484908131422,0.0515414653322096,0.0794283782017131,0.247791629394947,-0.0269901573366964,0.500411921233179,walk-stairascent
12.215,-1.42633991859994,1.17199519981927,0.337298332376244,1.99484539515564,-2.63712275320329,0.61553342600176,-0.959239493513702,0.975350183115563,-1.17015420562027,1.16383611097798,1.19370543947997,-0.690059735934014,-0.586626963498693,0.435156842258726,-0.400673396113782,-0.102204084372955,0.122833437960852,-2.55623790756438,-1.20065711881412,0.0557723984914251,0.0377313208574401,0.271383034887722,0.0448260833061649,0.53855645886569,walk-stairascent
12.22,-1.49695205717049,2.22022010454771,0.672741613776989,1.12040531498023,-2.26422121062794,0.402772197330617,-2.04405246739037,1.48043476541944,-0.861548536028175,0.805022431762769,1.81707370594449,-0.61680286533738,-0.6646207742966,0.626501857410009,-0.50750379145486,-0.377300013892294,0.284752189212797,-2.47529273804205,-1.2644157300873,0.0040309300442511,-0.0445643349954818,0.350919200960803,0.0847615190112781,0.616077985430746,walk-stairascent
12.225,-0.444761285415716,2.14980388943881,0.507789802438709,-0.0046427963551501,-1.75226627536721,0.168796119491675,-4.8645546543981,2.08327917437398,-0.143679964254022,1.46589541029719,2.60850683070786,-0.489870837504735,-0.812071504482187,0.872081473759353,-0.565394166627043,-0.694920165822422,0.352427456942614,-2.27114278070371,-1.30214102128665,0.0846631996591363,-0.118186808530892,-0.0211629330514519,-0.176223707498968,0.616660341752957,walk-stairascent
12.23,1.01793009795427,1.81904799479168,1.53620451933543,-0.986453049867826,-0.845121674492699,-0.0614451186026589,-5.63121753728986,1.46227456247943,0.671774565432274,0.260634789626451,2.5080640478858,-0.286741196834034,-1.12417289256855,1.39870920607528,-0.589741657892033,-1.08753300722615,0.41091193271198,-1.85273993536848,-1.26818787146373,0.0303900835624002,-0.12567101090016,-0.121341676410759,0.0269526000909739,0.621699667273478,walk-stairascent
12.235,1.97555822322169,0.0251424857707419,1.72696510925477,-0.71619540423908,-0.458584241422136,-0.0661393601304787,-3.82774265970258,-0.202628585716066,1.35043627987585,-2.10978895783443,1.21164603952633,-0.426402856537852,-1.46730442810045,1.94566430207043,-0.541821840574659,-1.30519811461703,0.475779345183985,-1.21009179104255,-1.30191921478618,-0.0200287576092871,-0.190213865163246,0.106742178281151,0.438664599696052,0.672272935744898,walk-stairascent
12.24,1.32587902080081,-0.69740385715744,1.77170207011545,-0.295980516581146,-0.207405336241048,-0.234766698971473,-1.75461084540439,-1.02971651393743,1.2942468195824,-2.77558548904834,0.84297992552227,-0.808966261261919,-1.96620398618724,2.03835775941669,-0.418340066357709,-0.747079278862267,0.483404182719796,-0.0721260547239486,-1.3814982234604,-0.0282403233187258,-0.25023549021287,0.352115425412863,0.744333475111782,0.751982553375437,walk-stairascent
12.245,0.0805084775405846,0.0508248084703911,1.3330174483617,0.230291818802592,-0.0074455471267108,-0.304294147882726,-1.29707013462107,-0.452346253539726,0.475653126736007,-2.76200192550584,1.50476633870958,-0.98901539468219,-1.98355392250031,2.03947934977461,-0.376138845249526,0.493172493786472,0.470525679041416,0.376222473885205,-1.47846473790295,-0.0686469860163218,-0.321951552632069,0.710338755879019,0.908516058388687,0.874322039398848,walk-stairascent
12.25,-0.341014301134157,0.726973013278035,0.811690523879813,-0.0161711630565127,0.192397014107375,-0.411908680912322,-1.02976554252576,-0.765802562008382,-0.130031457149155,-1.66187373119167,1.70162442889876,-0.925340743448412,-1.98227099217139,1.84428207634267,-0.514446183683737,2.10444028591834,0.39444743212024,0.1225124170234,-1.56411356828231,-0.0771090193580249,-0.362887790704103,0.750877197557038,0.843258378818908,0.925530697152139,walk-stairascent
12.255,-0.724545787075653,0.495367765423762,0.753386866202514,0.279021214803289,-0.198950224836715,0.0585297139060859,-0.61686643945533,-0.629863904254799,-0.899630306777666,0.884075207294789,1.28576367038468,-1.22912667154027,-1.97953653055911,1.15240983432048,-0.886813605137652,3.20360937229736,0.402081755826792,-0.252365406786755,-1.62289789018518,-0.0698681491007744,-0.432122118494499,0.380097764350292,0.479600046871847,0.957302946014726,walk-stairascent
12.26,-1.26968411509962,-0.133713083491836,0.660664886542113,-0.252297526531505,0.205354939512583,-0.0527340682719436,-0.232179105488397,-0.296041027186557,-1.17107336775746,-0.199585340222183,1.68489418572617,-0.508624500792865,-1.98195045086543,0.674845418120583,-0.864116916413717,2.94290053285854,0.464989972010803,-0.896890283923474,-1.65355578797663,-0.0461061015082073,-0.430669152447687,0.109492446787577,0.158281370037381,0.889443320160308,walk-stairascent
12.265,-1.29191493342042,-0.421529694176366,0.713673008704021,-0.0926649395127371,-0.0080622329785926,0.0005349466915955,-0.17135149483052,-0.638466677695914,-1.48875018811796,0.0045846175668037,1.47912862353537,0.172776951129719,-1.9912015881206,0.449946890838899,-0.325750685498519,2.59150421670144,0.321346189159002,-1.98035650251891,-1.69141742572457,-0.044202672031119,-0.377541245596297,0.0189881775573046,0.0688354596495628,0.77034674802797,walk-stairascent
12.27,-0.78153397223393,-0.111379674359276,0.77007742937142,0.0191134479040953,-0.142325797617793,0.137876076051661,-0.169256656821873,-0.507369217771716,-1.35531620374616,0.799299398553075,1.23706119322809,0.108032927719079,-2.00134611071619,0.368783978472169,0.311137126820533,2.54175645127698,-0.0292915300454733,-2.87325518853469,-1.73183143734568,-0.0563713670318165,-0.320372462794095,0.0911714576417484,0.0910039335032557,0.650535736284684,walk-stairascent
12.275,-0.401813094879964,0.0907511222403709,0.766735369588655,0.0082113832995952,-0.263351133088037,0.136764706986829,-0.3359464558028,-0.377005159068703,-0.949650461869966,0.184364564497024,1.38193388475339,-0.0452778062975389,-1.70642781621254,0.0715897135501537,0.58969333534917,2.05668424850974,-0.364303189534016,-3.12322905497701,-1.74945111729121,-0.0517052120843292,-0.321502148936592,0.326790277666132,0.100575217157335,0.541553409096729,walk-stairascent
12.28,-0.344926511207116,0.203470033610291,0.840394487250551,0.0777602785135934,-0.353912966659164,0.173917673893486,-0.672640899718349,-0.23103575711177,-0.622647075772326,-0.349326891835031,1.62492481196277,-0.330245299218971,-1.28551403845583,-0.320099245527441,0.51263093429173,0.762267099861114,-0.53289298013866,-2.93588760111815,-1.73255196341203,-0.0160615889098555,-0.357966011125814,0.603190257489897,0.0811236310951245,0.452537574586945,walk-stairascent
12.285,-0.440111292031216,0.283935087752991,0.894407777471681,0.0952147792509658,-0.468489754398085,0.121874140226908,-0.957781079282406,0.0421666756415293,-0.375387874429058,-0.323075337218936,1.63824922802367,-0.607913267117224,-0.978429823587517,-0.606597121305335,0.345432763888431,-1.69548135207228,-0.743952393861213,-2.52824923760636,-1.69011113998128,0.0646732142423388,-0.436132097070711,0.75926328135144,0.114343721344215,0.328975457715811,walk-stairascent
12.29,-0.390671746459013,0.375245699362989,0.86794004820662,0.0740449927648289,-0.465160937922226,0.0991436723937824,-1.04619420503879,0.188111361605959,-0.206566782636382,-0.0350009237370415,1.42655624485562,-0.580704233801279,-0.779757188368394,-0.672144162512803,0.167615420671952,-3.8831366694196,-1.0438087746887,-2.42119376869036,-1.68051007064747,0.176392175320211,-0.497451290357066,0.619660425700008,0.207007253168425,0.200748748016451,walk-stairascent
12.295,-0.282456030472972,0.38920685728059,0.848132367962023,0.0285510508716978,-0.370218290995214,0.0761131500308383,-0.970969876864684,0.0343888244783422,-0.264851299614138,0.199985440391799,1.02201673133689,-0.320761590970414,-0.775191915957347,-0.313507565469546,-0.0735228069841224,-5.23175710852213,-1.28287274859258,-2.67642751903454,-1.68667447138088,0.279018495900166,-0.553770834317703,0.232635395300376,0.375418835532829,0.0340325711705916,walk-stairascent
12.3,-0.280313193784111,0.342958195443195,0.810824177765261,0.0002916263867194,-0.276911716306297,0.0532607535136555,-0.854059918022931,-0.153273050488942,-0.496173827351696,0.290566671413005,0.706179744392619,-0.151971308077149,-0.727123672086295,0.175390399935867,-0.198511028165266,-5.80129155464574,-1.20770810698258,-2.81093867101579,-1.70765804482483,0.354594017893818,-0.563932718612554,-0.0456582071868614,0.464118350697136,-0.0884369814554627,walk-stairascent
12.305,-0.410615366190414,0.264924897378632,0.860024891366137,-0.0097430664722589,-0.205947486650589,0.0446652071063425,-0.721685802449763,-0.314201005903292,-0.712015811595112,0.279611311230383,0.577672443660335,-0.191863196748571,-0.623060810582595,0.665058760603421,-0.137239377429781,-5.35438055660193,-1.01978979261643,-2.65821552422268,-1.73190984509388,0.426392432424764,-0.548581430260173,-0.378216809232363,0.474218575771474,-0.251342552072915,walk-stairascent
12.31,-0.479687510960494,0.182602372513343,0.885387048979688,0.0122760282900666,-0.172500877281238,0.0802831213305457,-0.708552596115107,-0.395434995844851,-0.769623413845763,0.1881276137593,0.582999217244903,-0.285129409019321,-0.508311929281541,1.02541748527903,-0.0082363377609726,-3.95428337884054,-0.795745583076997,-2.31479932645901,-1.7306028621063,0.472932058625557,-0.530700137626932,-0.540720101848937,0.358425316221458,-0.337176548091557,walk-stairascent
12.315,-0.480729661169939,0.142733651350309,0.89473465419529,0.0375269504303897,-0.164832894387779,0.133975471282618,-0.776296272686467,-0.342308656081136,-0.68884682132707,0.0510370498776475,0.582053696927292,-0.303568750899522,-0.433308427357284,1.00606342455408,-0.0427778983930955,-2.15171577830427,-0.72400266428397,-1.87377874483084,-1.67774524729135,0.507589833780993,-0.522489976248464,-0.567054171628709,0.124442230057476,-0.391890497317882,walk-stairascent
12.32,-0.424227577877819,0.146238246513069,0.903513827466544,0.0496836773139224,-0.151145407222184,0.181956725206899,-0.915579714660733,-0.205483385293081,-0.596514025593315,-0.046290120144811,0.452627702602035,-0.217047149535028,-0.393375428061841,0.67178870438681,-0.186209099652682,-1.39623640482317,-0.739279348325072,-1.43866587936064,-1.59735968235217,0.521495546202178,-0.533690684912362,-0.486199186031341,-0.110104682505003,-0.373568691702842,walk-stairascent
12.325,-0.34340909283506,0.181293409890835,0.883985951063469,0.0650432945148775,-0.137141391634941,0.202317774788912,-1.06775406403549,-0.142108083608538,-0.532532592627349,-0.020895127547175,0.286578086710672,-0.102227332507859,-0.335526031226193,0.13956535222269,-0.305179451871907,-1.88855257329838,-0.798042863599917,-1.1119746425191,-1.4776882621535,0.533189816354181,-0.542667752434694,-0.38185287772048,-0.344738097227012,-0.409762977104335,walk-stairascent
12.33,-0.386542187768754,0.223608557187519,0.897393155601274,0.0789777105137469,-0.134628581953908,0.215414582895022,-1.1966711166955,-0.119006071987389,-0.554252701923727,-0.0421855965225299,0.0860410474092011,0.0379713596583585,-0.286656874186379,-0.324739457876253,-0.348073283565745,-3.09075939132836,-0.851167889476967,-1.08239865832862,-1.31923700313838,0.510140633161667,-0.512553697646599,-0.316437236425228,-0.610559606232234,-0.337482424603949,walk-stairascent
12.335,-0.444822643114319,0.25883654189355,0.838738654139478,0.106525652806746,-0.162446502327356,0.249263873952706,-1.21434705907648,-0.122329420135781,-0.607901340506302,-0.0701477118086357,-0.0380290405776589,0.140878781656551,-0.315745454539592,-0.452860515060516,-0.269292923540435,-3.92741766402081,-0.856579866392895,-1.37084059950136,-1.15306600397785,0.476203970853667,-0.425617504194204,-0.316323586807151,-0.754250995383634,-0.113322656287771,walk-stairascent
12.34,-0.439778701231728,0.297358042030752,0.822164661084811,0.120459985232468,-0.18134192447689,0.249993765729076,-1.08469896136426,-0.0906839736106009,-0.641012695704443,-0.028561500995053,-0.0769020755052409,0.158658515598695,-0.419013341096494,-0.308578002788915,-0.0922372463403768,-4.04599628227635,-0.798838662561845,-1.96804951492625,-0.998301963056715,0.434910855100961,-0.333966802541534,-0.370212926742019,-0.692734985762144,-0.023714252210474,walk-stairascent
12.345,-0.401242790436809,0.341699579830189,0.848369976472259,0.106761688997873,-0.175065872274994,0.213389787101063,-0.921245223997881,-0.0484447794516207,-0.623586481560143,0.0089049959126112,-0.0217811004954626,0.141973049923412,-0.569966446693283,-0.0828478863777703,0.110329518244779,-3.54599372809399,-0.755696236420489,-2.41537827573956,-0.836474877540896,0.399355578414975,-0.292744699378056,-0.485173255982217,-0.467972184301339,0.0724035442622548,walk-stairascent
12.35,-0.417823684713163,0.37101229676318,0.900791416866227,0.0840100570030707,-0.155379228231654,0.165798868718611,-0.863320669065461,-0.0136489381777789,-0.582245083945858,0.0091276434841271,0.0648326672434078,0.119126018593224,-0.736215770027445,0.158903556527524,0.281782605157472,-2.58670819805841,-0.668276580190147,-2.89676397933483,-0.718043642952796,0.368866374561594,-0.257145953716195,-0.614793418105305,-0.243607914073764,0.156614872676875,walk-stairascent
12.355,-0.392383624881182,0.366781048020762,0.952477301130985,0.0760113969445229,-0.139447600188598,0.105444968758502,-0.921864435228706,0.0093876626047406,-0.525826509154884,-0.0288140713390346,0.151811222264844,0.0855510282738478,-0.904542930707554,0.325883808968731,0.361787888753708,-1.72967757281382,-0.514630439379954,-3.06797917048455,-0.604675515067423,0.342829671401993,-0.224877500241468,-0.771747018293291,0.07596279016919,0.277871745688064,walk-stairascent
