Header;foot_Accel_X;foot_Accel_Y;foot_Accel_Z;foot_Gyro_X;foot_Gyro_Y;foot_Gyro_Z;shank_Accel_X;shank_Accel_Y;shank_Accel_Z;shank_Gyro_X;shank_Gyro_Y;shank_Gyro_Z;thigh_Accel_X;thigh_Accel_Y;thigh_Accel_Z;thigh_Gyro_X;thigh_Gyro_Y;thigh_Gyro_Z;trunk_Accel_X;trunk_Accel_Y;trunk_Accel_Z;trunk_Gyro_X;trunk_Gyro_Y;trunk_Gyro_Z;Label;;
10.195;-0.246428569;-0.172340565;0.95924665;0.231517948;0.022231317;0.065302975;-0.98914881;-0.047736767;0.125144145;0.328847265;-0.123132144;0.070893051;-0.995391954;-0.040734069;-0.083317018;0.304835802;0.083342483;0.142417243;-0.967050457;-0.072472899;0.247892763;-0.032868326;0.019672446;0.054796722;walk;0;
10.295;-0.230597785;-0.227959402;0.937405452;0.228429103;0.037267096;0.042291977;-0.975113349;-0.033968908;0.179708382;0.386881549;-0.129045203;0.1012913;-0.992637569;-0.049485986;-0.068868078;0.350567214;0.09017078;0.192162928;-0.949030132;-0.052689047;0.247703505;0.0408391;0.028076183;0.081723178;walk;0;
10.395;-0.238673578;-0.267124556;0.918612588;-0.054558538;0.003209905;-0.035893586;-0.96961883;-0.010527326;0.246418454;0.138464829;-0.070572988;0.140861938;-0.996834836;-0.038197594;-0.046227278;0.096868065;0.061971856;0.171710295;-0.972436311;-0.108436222;0.252781309;0.089949529;-0.006198317;0.052195707;walk;0;
10.495;-0.261375233;-0.2192264;0.938703107;-0.479375048;-0.07521594;-0.15500584;-0.982444417;0.014967714;0.224388517;-0.292230452;-0.006378853;0.166760965;-0.999794389;0.003030943;-0.063938063;-0.326016833;-0.04009281;0.083354172;-0.973420392;-0.110941526;0.266158343;0.001743868;-0.062386887;-0.14022471;walk;0;
10.595;-0.279686481;-0.142182755;0.949959724;-0.404509723;-0.055151694;-0.126536816;-0.982471384;0.034276612;0.186534635;-0.275704755;-0.057917768;0.120485013;-0.98620377;0.051710889;-0.080312875;-0.297658843;-0.071863393;0.043941205;-0.963638898;0.014441982;0.254154505;-0.061917062;-0.020018612;-0.185658966;walk;0;
10.695;-0.293672785;-0.091231598;0.969728389;-0.251636815;-0.043146717;-0.073959192;-0.987905344;0.040130938;0.213145817;-0.241262676;-0.129440242;0.026879734;-1.002509564;0.069146475;-0.044734291;-0.239808869;-0.117035393;-0.037600041;-0.945733727;0.041425052;0.291530305;0.006535866;-0.125121297;-0.179980437;walk;0;
10.795;-0.288368471;-0.101938147;0.948917303;0.102510552;-0.016228009;0.040044602;-0.974082318;0.046482898;0.209933322;0.016599627;-0.126777765;-0.064233352;-0.979129438;0.064544701;-0.060872324;0.032387086;-0.260080384;-0.057797265;-0.942155826;0.100232891;0.267574168;-0.059611979;-0.093992671;0.006763754;walk;0;
10.895;-0.294710388;-0.102340821;0.968398492;0.240214209;-0.007692381;0.098191731;-0.986535001;0.044199071;0.212489633;-0.011474403;-0.251362425;-0.18874519;-0.991037852;0.081535127;-0.035064429;0.035642967;-0.285485712;-0.18575848;-0.95065484;0.028127519;0.280409568;-0.049079029;-0.137761238;-0.009718668;walk;0;
10.995;-0.276157339;-0.167591028;0.949813071;0.575014336;-0.012405972;0.20205091;-0.974684874;0.013590169;0.291297162;0.133584667;-0.308505739;-0.341264599;-0.99347254;0.040012674;0.028950059;0.212717016;-0.422179431;-0.298330832;-0.970290101;0.101930565;0.259270917;-0.130605075;-0.1564143;-0.057085921;walk;0;
11.095;-0.22030933;-0.233837699;0.984340399;0.631179609;-0.395101772;-0.015318042;-1.071324178;-0.062548561;0.24618874;0.063069571;-0.353706666;-0.470725557;-1.083259551;-0.041490056;0.013522194;0.166406812;-0.542520579;-0.444873834;-1.073591293;0.029703536;0.178918503;-0.089773807;-0.02994178;-0.081936338;walk;0;
11.195;-0.327930915;-0.290303029;0.893355639;1.058606135;-0.999480383;-0.082015945;-0.968106935;-0.102031709;0.248735103;0.371733549;-0.59531218;-0.48893106;-0.996055565;-0.105586265;0.042814489;0.475417578;-0.145582563;-0.388311225;-0.968211948;0.001009068;0.133958378;-0.162107095;-0.028899268;0.058330508;walk;0;
11.295;-0.436809097;-0.30101212;0.832097209;1.186506066;-1.101029017;-0.033993173;-0.924407607;-0.073721659;0.255986396;0.393057569;-0.923561175;-0.434426504;-0.94827777;-0.081414741;-0.015495374;0.506747047;0.271137838;-0.286708515;-0.990036236;-0.020812148;0.088591093;-0.009286736;-0.017742861;-0.007605243;walk;0;
11.395;-0.393568666;-0.472334388;0.819326589;1.902914412;-1.98152908;-0.129909875;-1.102371063;-0.115247214;0.253733544;0.548290862;-1.443432118;-0.337966667;-1.067043194;-0.147635994;-0.234996051;0.641676252;1.153205689;-0.039298927;-0.990930358;-0.07896586;0.11401091;-0.016083647;0.122235772;0.092273164;walk;0;
11.495;-0.537068369;-0.710191227;0.936515606;1.164385974;-1.797592959;-0.66421102;-0.813640718;-0.170183005;0.572460958;0.215865594;-1.217239304;-0.166962591;-1.115462151;-0.25675921;-0.126423568;0.271406271;2.091457019;0.024064427;-0.984489563;-0.111991392;0.172098577;-0.088922161;0.073664101;0.218719062;walk;0;
11.595;-0.040862586;-0.43649004;0.896713253;-1.708347969;2.511478739;0.429270417;-0.325959178;-0.186255866;0.58222862;-0.233250109;1.734046005;0.295266441;-1.00043797;-0.242313508;0.070830702;-0.374398895;1.518423017;-0.038049314;-0.959725409;-0.088201025;0.246220029;-0.069874843;0.024031804;0.287134926;walk;0;
11.695;-0.482844058;-0.699461389;0.832101862;-1.980643659;3.846769728;1.772771294;-0.733705134;-0.151510116;0.458858267;-0.466815231;4.25816942;0.456476024;-0.800222903;-0.135819188;-0.049712058;-0.653008508;0.128556507;0.006447602;-0.932940211;-0.166376607;0.272983241;-0.02170585;-0.000666308;0.235720973;walk;0;
11.795;-1.20298711;-0.662347719;0.528107336;-1.938900638;1.871725009;-0.750582455;-1.182133966;-0.14483596;0.276202156;-0.234776353;2.322994839;0.232262812;-0.875750779;-0.104163449;-0.431877103;-0.301305362;-0.511304922;0.124006595;-0.944619364;-0.141765071;0.318675131;0.152541387;0.037418626;-0.136020202;walk;0;
11.895;-0.398815556;-0.358693284;0.877888277;0.247211954;-1.190244757;-0.333289841;-1.129901695;-0.148773342;-0.08722031;0.180641852;-0.676480879;0.182768037;-0.994468564;-0.142856143;-0.46463966;0.127769874;-0.412897563;0.223098109;-1.037526651;-0.162706971;0.296980459;0.149892274;0.071204938;-0.105202043;walk;0;
11.995;-0.438035195;-0.318017671;1.028283259;0.057074153;-0.554503102;-0.168078316;-0.980561625;-0.027772673;0.155593785;0.23902703;-0.985355185;0.278190336;-0.972400715;-0.040670206;-0.169811944;0.141505765;-0.490541113;0.338415288;-0.985193325;-0.079141997;0.240830687;0.010272161;0.139211299;-0.09136274;walk;0;
12.095;-0.245383084;-0.273341937;0.936296161;-0.259571226;-0.036696273;-0.102209227;-0.967671741;1.68E-05;0.194332046;0.102830135;-0.786376846;0.267227737;-0.976564997;0.016455523;-0.108083857;0.008914234;-0.713125979;0.286165866;-0.916797453;0.02539452;0.139300196;0.144077401;0.071230783;-0.084057642;walk;0;
12.195;-0.238683548;-0.244603364;0.945380358;-0.119645298;-0.078404375;-0.050999246;-0.978996887;0.044605209;0.292980007;0.080819637;-0.497287335;0.168943071;-1.02212809;0.050714138;-0.03701795;0.020613699;-0.676505152;0.186495231;-0.987769366;0.016954174;0.179387471;0.070154996;-0.099671289;-0.09640794;walk;1;
12.295;-0.254032876;-0.211247334;0.939770919;-0.311729859;-0.101358952;-0.029608508;-0.971839076;0.05173081;0.20513795;-0.273555437;-0.354300473;0.102520983;-0.974788848;0.055145613;-0.096484689;-0.292000581;-0.666335338;0.016348323;-0.919305403;-0.009611017;0.222539819;-0.179975323;-0.174458418;-0.065333326;walk;1;
12.395;-0.253630454;-0.200095458;0.949885695;-0.169910703;-0.095161309;0.056329353;-0.977504444;0.034015737;0.23099274;-0.306253433;-0.460198158;0.006422767;-0.975876275;0.047867001;-0.068801883;-0.296299027;-0.668276088;-0.078463813;-0.969064797;0.091826249;0.23968793;-0.465864486;-0.017415975;0.252175191;walk;1;
12.495;-0.249797069;-0.150572138;0.990356222;0.05815618;-0.21103101;0.091027937;-1.023402999;0.057179366;0.257537084;-0.333653028;-0.550137769;-0.157028388;-1.025866548;0.104497883;-0.0013629;-0.282700324;-0.745015447;-0.237502436;-0.96350693;0.069166184;0.284991163;-0.376029915;-0.066574554;0.236599715;walk;1;
12.595;-0.198590113;-0.128866058;1.054789666;0.948665028;-1.007044006;-0.005888399;-1.163177097;0.009451748;0.112533919;0.265039881;-0.904706681;-0.41536514;-1.123329941;0.097556132;-0.117745808;0.362788761;-0.50101185;-0.329774672;-1.105124736;0.033188909;0.254259831;-0.089517965;0.001693261;-0.168302832;walk;1;
12.695;-0.237229292;-0.248629836;0.888008036;2.004604236;-2.387214578;-0.21560018;-1.063099799;0.02455254;0.157069916;0.723636056;-1.601455136;-0.403499984;-1.028458338;-0.05510441;-0.219578362;0.819576103;0.450030854;-0.120270789;-0.999595651;-0.095175518;0.162901536;-0.121002077;0.076463384;-0.163352632;walk;1;
12.795;-0.574896956;-0.528872092;0.785283527;1.786840286;-3.663027247;-0.440799432;-0.990149702;-0.100708341;0.454202366;-0.247210986;-1.883827061;-0.043243664;-1.084262851;-0.184278599;-0.172892358;-0.162316171;1.729611357;-0.210433494;-0.955470647;-0.061918175;0.104152217;-0.071879417;0.066079342;-0.133020455;walk;1;
12.895;-0.618835133;-0.674588639;0.947519699;0.16692775;-1.030900808;0.352185994;-0.541691092;-0.146039904;0.685583098;-0.456402758;-0.409139604;0.351009797;-1.13751881;-0.178970563;-0.021615436;-0.546111118;2.086280139;-0.200617428;-1.000297712;-0.034780407;0.183552451;-0.054706087;0.155494703;0.090912718;walk;1;
12.995;-0.1637234;-0.509501577;0.6282661;-2.025185272;3.261500447;0.888004473;-0.371002213;-0.168677981;0.564339592;-0.179088263;2.471355557;0.268098498;-0.91461852;-0.106686664;0.018392961;-0.320261097;1.355725727;-0.036512596;-0.904378769;-0.112618893;0.262838846;0.090128743;0.078736277;0.141757443;walk;1;
13.095;-0.521430062;-0.721314194;0.871741632;-1.569187247;3.971204848;1.410680067;-0.783914219;-0.173118105;0.44573337;0.025308258;4.275344533;-0.089822553;-0.809843039;-0.142254115;-0.111622291;0.080002359;0.089103782;-0.05109323;-0.925186992;-0.086533201;0.314280914;0.144361436;0.049066137;-0.077554218;walk;1;
13.195;-1.176405079;-0.626067699;0.637669247;-2.155987752;2.419162855;-0.83880536;-1.209854605;-0.086386056;0.192994005;-0.188626916;2.82144558;0.013388311;-0.886842962;-0.116057865;-0.513429933;-0.176562117;-0.389561796;-0.052250585;-0.920495081;-0.055907546;0.318324676;0.235488949;0.0514377;-0.034501267;walk;1;
13.295;-0.578914508;-0.299881368;0.707386915;0.499653515;-0.784846339;-0.03707004;-1.097556551;-0.081321936;0.008763971;0.296633767;-0.577648627;0.124394708;-0.959401974;-0.097416795;-0.430307091;0.253741611;-0.181636084;0.196762987;-0.968425918;-0.078762145;0.342306885;0.274605513;-0.010850099;0.112446015;walk;1;
13.395;-0.332579538;-0.406374628;1.058456287;0.22226897;-0.880004927;-0.105854082;-1.028930849;-0.053040378;0.066437946;0.098149363;-0.92320581;0.269381114;-0.989341942;-0.075362204;-0.292301134;0.005951599;-0.351000055;0.285985048;-1.060197419;-0.190403868;0.309963865;0.133872416;-0.010784807;0.132272575;walk;1;
13.495;-0.268876971;-0.322155468;0.928115229;-0.539785123;-0.153753211;-0.250889147;-0.973117608;-0.010265374;0.139139974;-0.112004571;-0.710999356;0.308677047;-0.948871115;-0.014041552;-0.208828031;-0.211350589;-0.778274474;0.251528282;-0.952115303;-0.067744746;0.213566899;-0.02127089;0.026954711;-0.013122258;walk;1;
13.595;-0.254556609;-0.197286291;0.960188133;-0.167482946;-0.063488357;-0.066977512;-0.986117373;0.053501789;0.13520016;0.088688553;-0.626937716;0.20387705;-0.976256945;0.091745209;-0.156542263;0.015202193;-0.691692116;0.221631944;-0.954193022;0.053551439;0.14823577;0.06011884;0.013182524;-0.122349186;walk;1;
13.695;-0.241533303;-0.248634912;0.944107469;-0.066710875;-0.06931861;-0.020824055;-0.983754829;0.052915284;0.230983553;0.037426245;-0.467513907;0.098243256;-0.998261327;0.063712522;-0.098918889;0.003282784;-0.679112442;0.105302538;-0.96817761;0.008789667;0.232603153;0.208847117;-0.081014072;-0.274225631;walk;1;
13.795;-0.253011245;-0.235650133;0.94161959;-0.004145026;-0.058233008;0.029164451;-0.976155701;0.040164827;0.192965251;-0.012763444;-0.409465273;0.026851009;-0.979303077;0.052518187;-0.099086777;-0.020299078;-0.671225814;0.021730522;-0.934731427;0.029738048;0.220889223;0.029411933;-0.056764124;-0.203308793;walk;1;
13.895;-0.23484641;-0.26680006;0.923857511;-0.087104838;-0.038509113;0.045283312;-0.95802125;0.037694115;0.261620775;-0.210018153;-0.481799472;-0.035444023;-0.969753899;0.027994684;-0.051255634;-0.191840344;-0.636779366;-0.092465073;-0.954810412;0.095737169;0.242724344;-0.154249027;0.061497507;0.089048406;walk;1;
13.995;-0.249757858;-0.202120115;0.968538516;-0.072714109;-0.05926803;0.055325047;-0.991270134;0.05959762;0.272703852;-0.42205491;-0.491725023;-0.159303058;-0.998560748;0.099290775;0.009232073;-0.366677402;-0.75257313;-0.263693346;-0.90600065;0.071711807;0.348508059;-0.201783166;0.072438599;0.165130682;walk;1;
14.095;-0.175577809;-0.139030438;1.076257628;0.891388267;-0.708089331;0.121573255;-1.175788031;0.025179667;0.153214741;0.11198077;-0.787641539;-0.417267737;-1.15584618;0.108925381;-0.067390238;0.212999628;-0.517988334;-0.373383715;-1.100903408;0.022955237;0.311952919;-0.189288344;-0.060155235;-0.17879601;walk;1;
14.195;-0.167178398;-0.328202674;0.893038439;1.969025565;-2.147938227;-0.178871174;-1.08661648;-0.029088499;0.155194079;0.565554107;-1.397401362;-0.42144285;-1.051091167;-0.088274923;-0.204059456;0.675510882;0.373849292;-0.210865052;-0.999106588;0.004005532;0.211635428;-0.302122524;0.024302483;0.044498906;walk;2;
14.295;-0.516671057;-0.461616693;0.785999631;1.71354553;-3.426548356;-0.733816785;-1.00557175;-0.06135305;0.352190359;-0.155469954;-1.837945387;-0.170095753;-1.03135406;-0.135247364;-0.215150362;-0.029117394;1.636098354;-0.242998673;-0.931932342;-0.104992054;0.138939171;-0.221971258;-0.000246799;-0.013013154;walk;2;
14.395;-0.647283522;-0.650353849;0.950758386;0.961475005;-1.697035505;0.275496272;-0.643685888;-0.113400305;0.66000595;-0.269467884;-0.757095156;0.249608854;-1.14119008;-0.169324715;-0.079022429;-0.364856143;2.109215086;-0.085712164;-0.98707822;0.002564204;0.230237519;-0.126482208;0.103248127;0.095049578;walk;2;
14.495;-0.201269708;-0.499185873;0.689450604;-1.913932217;2.705286776;0.760551438;-0.366692369;-0.124298276;0.569266397;-0.064735861;2.009094394;0.324281035;-0.93967528;-0.09644752;-0.012054139;-0.316998045;1.446914634;0.090187351;-0.917223027;-0.03186568;0.292207661;0.164888937;0.023970088;0.140970423;walk;2;
14.595;-0.426267341;-0.704566076;0.785273787;-1.813465638;3.913191843;1.415389073;-0.711161417;-0.155421811;0.450526458;0.202392606;4.075898256;0.019522175;-0.800343102;-0.110530018;-0.087918278;0.116015873;0.180419336;0.152633339;-0.922401377;-0.121776152;0.312970981;0.22052616;0.017023643;0.03847559;walk;2;
14.695;-1.029580732;-0.700872936;0.695690149;-2.681865865;2.891018182;-1.111692509;-1.174279983;-0.104254058;0.266125483;-0.031805209;3.190705961;0.024412423;-0.87537448;-0.142840812;-0.444994954;-0.040975443;-0.479099635;0.024556274;-0.891029657;-0.070210023;0.371635936;0.153715838;0.002519078;-0.07167424;walk;2;
14.795;-0.75356333;-0.327600704;0.679949923;0.055995894;-0.643984129;-0.37739365;-1.166587643;-0.081048768;0.020878071;0.178614249;-0.215211077;0.130517163;-0.995991885;-0.090539735;-0.470207914;0.141344833;-0.331185779;0.169504349;-0.994851459;-0.029035319;0.328010341;0.179945035;-0.091831625;0.231861694;walk;2;
14.895;-0.327258884;-0.328799648;1.07142884;0.072542628;-0.865342731;-0.085866169;-1.017124047;-0.019422216;0.057701408;-0.025185406;-0.902466984;0.233703027;-0.98191124;-0.036926846;-0.258323306;-0.09146584;-0.435288069;0.215905109;-1.059517371;-0.198943727;0.279635202;0.158116613;-0.040936341;0.179892868;walk;2;
14.995;-0.238948884;-0.226551792;0.947095024;-0.630538435;-0.185611179;-0.287719116;-0.981322268;0.013242354;0.086262023;-0.26739811;-0.693875791;0.234034921;-0.950840162;0.007191068;-0.211069241;-0.325814582;-0.750606571;0.142169766;-0.955823656;-0.09013681;0.180855106;0.001181554;0.014047922;-0.123852839;walk;2;
15.095;-0.281385326;-0.081459018;0.988551672;-0.086186483;-0.117345445;-0.106098859;-0.98690634;0.059138283;0.094535363;0.13681636;-0.624466616;0.151027808;-0.979307905;0.113388726;-0.136663006;0.084914459;-0.590771967;0.185483381;-0.948177529;0.07346902;0.146799551;0.195256317;0.023196185;-0.159958126;walk;2;
15.195;-0.244353434;-0.218874492;0.952091415;0.175678885;-0.039558147;0.015720214;-0.9840528;0.041817264;0.224669743;0.267414767;-0.49289424;0.05812575;-1.001140402;0.03573823;-0.092213634;0.237519347;-0.60391473;0.136028351;-0.960949205;-0.03928721;0.249830182;0.329802809;-0.112920618;-0.305851385;walk;2;
15.295;-0.243408931;-0.21849036;0.935645203;-0.126185517;-0.065803601;0.004659227;-0.973713361;0.042644395;0.20282387;-0.114640694;-0.391696633;0.050235647;-0.975404266;0.029007387;-0.10379686;-0.124411253;-0.63431541;0.016876443;-0.91802801;0.019859681;0.261111346;-0.01849429;-0.135088186;-0.121172831;walk;2;
15.395;-0.255881308;-0.170416386;0.951237166;-0.266815302;-0.058900738;-0.002336572;-0.972752672;0.050556842;0.217034914;-0.385989238;-0.466057919;-0.0154797;-0.968900875;0.058406467;-0.063965949;-0.369151129;-0.710153403;-0.114431735;-0.955348133;0.094672839;0.253992333;-0.203022683;-0.014973482;0.202503594;walk;2;
15.495;-0.26148507;-0.109343125;0.985287119;0.043319041;-0.079169561;0.086825746;-0.99642146;0.07074461;0.247304875;-0.314596774;-0.5520545;-0.178290765;-0.998337718;0.115171531;0.019327189;-0.264694015;-0.801120829;-0.247248248;-0.92786458;0.017871956;0.321448002;-0.240835829;0.028008809;0.184961812;walk;2;
15.595;-0.178353748;-0.161187183;1.041982768;0.568354014;-0.64815353;0.006186397;-1.136090102;-0.012331645;0.207558181;-0.07024673;-0.714664962;-0.417747894;-1.119149704;0.066490815;0.000291807;0.020918245;-0.748531532;-0.423231163;-1.094629891;0.058349867;0.270835413;-0.136936688;-0.054292114;-0.178701096;walk;2;
15.695;-0.241075208;-0.136280951;0.966683508;1.523771889;-1.856650643;-0.278130975;-1.085031779;0.019933977;0.100914821;0.705723584;-1.292910004;-0.575046801;-1.057489057;0.008323038;-0.127567528;0.83028337;-0.035614476;-0.36616311;-0.994744341;-0.04605085;0.246195022;-0.180332183;-0.011392052;-0.215383574;walk;2;
15.795;-0.422603278;-0.345421177;0.817024534;1.51829217;-3.35780315;-0.504796756;-1.048150068;-0.063110573;0.256331818;0.145150503;-1.944541324;-0.282402872;-1.025867939;-0.150100747;-0.206798881;0.26096737;1.312527549;-0.199161614;-0.984571799;-0.068971266;0.060209364;-0.158387601;0.013247373;-0.157200783;walk;2;
15.895;-0.804321195;-0.489254978;1.004956111;1.400145832;-2.941909706;0.03083152;-0.75841409;-0.099275279;0.662825273;-0.108754277;-1.427221559;0.032737723;-1.183005498;-0.17731913;-0.041512514;-0.101559841;2.309394091;-0.075111773;-1.008118353;-0.048478144;0.154407909;-0.221288409;0.109792898;0.051651245;walk;2;
15.995;-0.256353437;-0.5286305;0.759765492;-0.871298267;2.206218667;1.526673823;-0.314405297;-0.161697031;0.667398248;-0.099259203;1.430824375;0.357711453;-1.051287622;-0.153327338;0.064531327;-0.364540407;1.886058534;0.072475863;-0.921743958;-0.016153901;0.242956385;-0.055978837;0.046428694;0.283192009;walk;2;
16.095;-0.309399302;-0.650634678;0.690690346;-1.865771534;4.172522827;1.527597964;-0.553667788;-1.95E-01;0.532921834;0.108569544;4.089228455;0.002528125;-0.828246358;-0.108725658;0.037986501;0.061542834;0.651676141;0.069684658;-0.93639863;-0.088449286;0.260809506;0.022912024;-0.070182655;0.191266234;walk;2;
16.195;-1.112572039;-0.717933689;0.75694804;-2.244507772;3.129569742;-0.695719284;-1.099082261;-0.082975817;0.370128566;0.178019232;3.819367081;-0.101719674;-0.821431255;-0.162067525;-0.366502422;0.205683132;-0.443088243;0.024510363;-0.916401176;-0.043430025;0.328535205;0.266188703;-0.009876545;-0.044194876;walk;3;
16.295;-0.954124391;-0.393393595;0.566913259;-0.461691405;-0.126327138;-0.489542506;-1.179974364;-0.083274943;0.015974389;0.014672872;0.086751186;0.202700439;-0.953440067;-0.108262073;-0.553990602;-0.038952376;-0.302039487;0.198351866;-0.951900398;-0.069964164;0.30452804;0.388783277;-0.024485713;0.092018765;walk;3;
16.395;-0.355190589;-0.342236624;1.09369455;0.07031261;-0.632059788;0.115287432;-1.030731493;-0.026440603;0.100797115;0.008563585;-1.047741754;0.297966791;-1.003963612;-0.027157294;-0.244864724;-0.089097658;-0.183328136;0.285136119;-1.096949059;-0.163310296;0.231632161;0.166030678;0.049416362;0.319542336;walk;3;
16.495;-0.191058077;-0.284156659;0.927173087;-0.668686343;0.061501743;-0.25444138;-0.966363704;0.010224277;0.217209047;-0.185874577;-0.598715354;0.269688417;-0.973710203;-0.005169724;-0.158174183;-0.270334496;-0.761771621;0.186400097;-0.996728224;-0.050243125;0.15747353;0.30545819;0.07489909;-0.204292169;walk;3;
16.595;-0.185301104;-0.100761471;0.967341185;-0.649139269;-0.063908239;-0.193248811;-0.992909687;0.061687903;0.121196617;-0.395587033;-0.37754508;0.200217747;-0.977822331;0.084328806;-0.173849039;-0.439358546;-0.760649827;0.058953846;-0.976800058;-0.026958635;0.165934854;0.268490895;0.107719631;-0.221507741;walk;3;
16.695;-0.185957095;-0.065601832;0.971437464;-0.18922759;-0.235797612;-0.118555487;-0.995797126;0.0652889;0.101528515;-0.099947178;-0.340879968;0.090999607;-0.975994585;0.083432298;-0.173631547;-0.122010883;-0.727388507;0.057576604;-0.925284905;0.002341845;0.279427379;0.191012573;0.111780727;-0.293951191;walk;3;
16.795;-0.265972359;-0.126444992;0.974977455;-0.130395599;-0.255989542;-0.042081401;-0.986804823;0.035939348;0.131721881;-0.120878449;-0.430351791;0.068874632;-0.969059825;0.040020339;-0.13638817;-0.13467909;-0.64777805;0.035562185;-0.88674497;0.013132874;0.296732912;-0.043809231;0.075605413;-0.018386615;walk;3;
16.895;-0.26311249;-0.10233703;0.981470202;-0.011806811;-0.063622134;0.056000176;-0.983336639;0.044379885;0.196670737;-0.10846199;-0.616824989;-0.024918656;-0.977767733;0.0674145;-0.064604646;-0.098690524;-0.599284791;-0.051376467;-0.91879065;0.068408248;0.326648172;-0.231023536;0.083665848;0.27818802;walk;3;
16.995;-0.245325754;-0.098090884;0.984989495;0.259347213;-0.159646505;0.178769559;-0.993056611;0.068847095;0.285788724;-0.084626718;-0.670584143;-0.155278531;-1.007840225;0.096707251;0.025167965;-0.043013136;-0.699881065;-0.171539775;-0.917435309;-0.009808465;0.378176087;-0.246633832;0.001678609;0.185577881;walk;3;
17.095;-0.196754732;-0.144817971;1.019745555;0.545364582;-0.705965276;0.030272099;-1.093158089;0.020379101;0.290573983;-0.048270868;-0.718302395;-0.361735438;-1.099285087;0.076111502;0.0334035;0.042263596;-0.729631004;-0.362525258;-1.057392807;0.014876424;0.330372681;-0.232165107;-0.130966728;-0.142626853;walk;3;
17.195;-0.261350288;-0.086782171;0.987071624;1.325478516;-1.82421007;-0.192795874;-1.101101222;0.027335187;0.125969478;0.534698482;-1.111890272;-0.522540302;-1.080840053;0.052220236;-0.104693788;0.656781198;-0.252884148;-0.349014167;-0.999695179;0.003598784;0.293592446;-0.284213454;-0.110210373;-0.165956553;walk;3;
17.295;-0.390457001;-0.341231893;0.812525632;1.556007971;-3.385340514;-0.444788172;-1.087602027;-0.048054363;0.181532029;0.199015465;-1.874781628;-0.320434777;-1.010014852;-0.148556964;-0.300901004;0.32523139;1.102689097;-0.224308788;-0.969488834;-0.040557904;0.118436664;-0.204559757;-0.062139418;-0.105597158;walk;3;
17.395;-0.826395021;-0.442371974;1.030723969;1.368081665;-3.624429951;-0.018844166;-0.860989966;-0.090144729;0.567760012;-0.326672698;-1.642627669;0.041012897;-1.165694555;-0.164311897;-0.127937784;-0.254327437;2.355825414;-0.228579632;-0.974334528;-0.051182301;0.160982078;-0.126981073;0.029381473;-0.053639245;walk;3;
17.495;-0.412311826;-0.526851503;0.897253807;-0.776850649;2.007785388;1.611696176;-0.344000206;-0.13121908;0.668172772;-0.203452628;1.141373487;0.414008257;-1.089447628;-0.139151082;0.020112953;-0.46363736;2.087200172;-0.001621913;-0.963613093;-0.009791406;0.260596305;0.076003034;0.072817841;0.165005642;walk;3;
17.595;-0.258313262;-0.575195269;0.658885121;-2.017261078;4.279832246;1.916678242;-0.48161443;-0.153270201;0.536890984;-0.070779472;4.051887551;0.253205669;-0.833471184;-0.115841374;0.032028047;-0.253603082;0.884357158;0.071914349;-0.91802555;-0.097286935;0.269812062;0.128179302;-0.008619575;0.126379341;walk;3;
17.695;-0.984542436;-0.848694766;0.847552827;-2.589808792;3.424821915;0.041065985;-1.089347582;-0.094926043;0.360596999;-0.132079398;4.263245749;0.123350426;-0.821223189;-0.104780799;-0.316193873;-0.17932259;-0.27542004;0.03928294;-0.925239115;-0.091186478;0.316238919;0.197520073;0.048943922;-0.124591624;walk;3;
17.795;-1.133360816;-0.365892497;0.451924046;-1.204511398;0.823167343;-1.309435858;-1.158280117;-0.082286639;0.112945114;0.237168402;0.858389585;0.134751715;-0.909024249;-0.027775787;-0.461180359;0.196153401;-0.394833365;0.181009974;-0.928957781;-0.047290046;0.35714816;0.274268072;-0.024884614;-0.088786525;walk;3;
17.895;-0.209139705;-0.406042529;1.04929517;0.703981164;-1.483882673;-0.236750135;-1.120604011;-0.102442164;-0.099693936;0.401890074;-0.891405974;0.154824907;-1.032111078;-0.151666011;-0.448258603;0.350488402;-0.465260243;0.247790982;-1.05449065;-0.07929034;0.346263982;0.244820687;-0.136804988;0.117700629;walk;3;
17.995;-0.391296378;-0.221328802;1.010054245;-0.186924679;-0.435243053;-0.240034121;-0.974307437;0.028943776;0.042003929;0.060776625;-0.929471113;0.252407275;-0.936075378;0.025788865;-0.239765859;-0.015231195;-0.62247653;0.259587913;-0.975891285;-0.069157988;0.217251991;0.146723459;-0.089660921;0.070923719;walk;3;
18.095;-0.268156463;-0.244587078;0.951737512;0.097016096;-0.044640367;-0.022417244;-0.975225261;0.023064399;0.101710372;0.366271;-0.87049602;0.221782161;-0.956236203;0.050054343;-0.17529298;0.279203601;-0.66278951;0.325034712;-0.947484173;-0.015722316;0.13196135;0.090416309;-0.027284074;0.036468264;walk;3;
18.195;-0.225074174;-0.292865388;0.919977977;-0.32672959;-0.071784751;-0.135574893;-0.970473409;0.043842789;0.280458823;-0.055049174;-0.575654726;0.193916131;-1.002954472;0.01305044;-0.069758704;-0.11417252;-0.740171625;0.167401529;-0.99739262;0.022374418;0.141235538;0.2910894;-0.063555959;-0.099327514;walk;4;
18.295;-0.272577306;-0.128487969;0.972851615;-0.369330358;-0.106413403;-0.111833318;-0.994330385;0.08789893;0.143318782;-0.258418793;-0.418171676;0.102035601;-0.986223844;0.129484259;-0.107411306;-0.276944304;-0.72733808;0.02198604;-0.971723791;-0.06796407;0.180355914;0.107722481;-0.075702222;-0.194658362;walk;4;
18.395;-0.263840682;-0.17697698;0.943984125;0.066543642;-0.042770858;0.093574335;-0.962012305;0.061606867;0.22840475;-0.008690154;-0.489726844;-0.005995873;-0.973882764;0.063245958;-0.051857701;-0.006841103;-0.636792202;-0.007966592;-0.966212885;0.056029795;0.204381316;-0.129465718;0.06091528;-0.142319014;walk;4;
18.495;-0.253053033;-0.179613361;0.948127971;-0.229842052;-0.09194941;0.020215994;-0.971097903;0.057770734;0.278447915;-0.410061584;-0.462130508;-0.028782533;-0.989434729;0.048546023;0.006808969;-0.390412012;-0.75056257;-0.128943147;-0.9103586;0.067766069;0.283819181;-0.29746536;0.109223345;0.200915615;walk;4;
18.595;-0.253654614;-0.128504453;0.996551651;0.05552127;-0.256915211;0.057544668;-1.029982319;0.055037013;0.260224032;-0.340060842;-0.533516148;-0.167093435;-1.033205441;0.100720086;0.039032657;-0.295286444;-0.790068834;-0.238368054;-0.96751154;0.037729246;0.321619022;-0.253614862;0.033926294;0.166010516;walk;4;
18.695;-0.20041589;-0.115565463;1.058515922;0.851777061;-1.116109234;-0.163555017;-1.175328606;-0.008836905;0.110367353;0.290168284;-0.908477119;-0.423220836;-1.146207014;0.090794631;-0.0578545;0.375878221;-0.454106143;-0.344507799;-1.093724902;-0.031383447;0.307421721;-0.31916558;-0.038104841;-0.049558893;walk;4;
18.795;-0.272030099;-0.229766436;0.846581284;1.437225791;-2.573284612;-0.499720675;-1.02578575;0.046640719;0.177736129;0.488176774;-1.632956346;-0.425896721;-0.991290383;-0.05093531;-0.196689687;0.606973273;0.619337272;-0.254017873;-0.96402969;0.00772578;0.158793823;-0.334354958;-0.005938977;-0.083556813;walk;4;
18.895;-0.695470152;-0.329316318;0.783622973;1.004357037;-3.786702044;-0.599897519;-0.964724377;-0.070202282;0.463855008;-0.252502456;-1.890591369;-0.160827354;-1.076879669;-0.101486027;-0.100807118;-0.10659341;1.673947234;-0.280453048;-0.987438636;-0.052455968;0.105238481;-0.082906985;0.086386678;-0.125260902;walk;4;
18.995;-0.839820659;-0.471182889;1.019689635;0.929762145;-1.397823954;0.917823984;-0.589209902;-0.093370603;0.713953623;-0.202653398;-0.680546437;0.118898682;-1.148333382;-0.163038816;-0.047778481;-0.212446207;2.12122886;-0.117003841;-0.96950433;-0.036392252;0.210043599;-0.075823868;0.113066476;0.051940527;walk;4;
19.095;-0.194357735;-0.488454798;0.624469237;-1.242363733;3.072976196;1.96466827;-0.373878051;-0.176338944;0.620971385;-0.244907231;2.123450545;0.329657756;-0.989011537;-0.1591908;-0.020019553;-0.403240591;1.606508335;-0.078553465;-0.935815494;-0.050831018;0.252523249;0.096618926;0.009005728;0.153015323;walk;4;
19.195;-0.375802747;-0.67028815;0.803541312;-1.967923969;3.903185266;1.560795804;-0.65590585;-0.145288573;0.469039572;-0.127333898;4.305455826;0.109408909;-0.7929816;-0.087881359;-0.05071168;-0.163634309;0.395924238;-0.045373611;-0.92688723;-0.120240383;0.316077667;0.032234186;0.028057331;0.120185689;walk;4;
19.295;-1.254256968;-0.657801919;0.660252242;-2.347485375;2.884494701;-0.989923267;-1.155642646;-0.073974103;0.282800409;0.078655768;3.322198001;-0.016778861;-0.820666408;-0.081432433;-0.440723371;0.082585456;-0.477195402;0.016285321;-0.871914756;-0.030782309;0.3766063;0.138147997;0.008083014;-0.072278831;walk;4;
19.395;-0.681895715;-0.311485899;0.689656096;0.095783263;-0.530436179;-0.716123552;-1.161668038;-0.083704409;-0.005096845;0.518563238;-0.323126373;0.134318021;-0.987848585;-0.105630419;-0.504402554;0.464023149;-0.428506206;0.267307329;-0.991411876;-0.02691349;0.355684265;0.30364985;-0.062006681;0.169772195;walk;4;
19.495;-0.359581225;-0.371887194;1.080694436;0.356642512;-0.808540308;-0.125458017;-1.033123844;-0.025361361;0.088547631;0.333484532;-0.921155959;0.277149398;-1.008873481;-0.053781755;-0.259378583;0.231213891;-0.409355238;0.365632764;-1.059199835;-0.247905963;0.2893006;0.134326148;-0.062169852;0.16604844;walk;4;
19.595;-0.250268957;-0.345547698;0.910768557;-0.520233568;-0.160770848;-0.285296705;-0.969971044;-0.014674881;0.165465136;-0.08131086;-0.581446298;0.312352149;-0.957493154;-0.02368381;-0.168984211;-0.177205236;-0.858377711;0.271224108;-0.959042861;0.005894409;0.153116775;0.150628136;-0.123014073;-0.237741372;walk;4;
19.695;-0.251594238;-0.194321618;0.94898533;-0.603615691;-0.086298283;-0.261225893;-0.986404919;0.042871724;0.129060617;-0.23087738;-0.501629276;0.234972279;-0.977504425;0.048618688;-0.141460192;-0.289457236;-0.728055379;0.157603045;-0.971610124;0.03231817;0.091710704;0.179747982;-0.010657022;-0.114020684;walk;4;
19.795;-0.25547661;-0.159218981;0.957457656;-0.652686507;-0.102171551;-0.220772911;-0.996164646;0.052902719;0.191053015;-0.447759412;-0.370227029;0.153942883;-0.999969815;0.055831377;-0.081781231;-0.473068242;-0.668500165;0.028864713;-0.952198804;-0.007816026;0.217843011;0.163427714;-0.071708037;-0.134349897;walk;4;
19.895;-0.2875424;-0.032974713;0.978636057;-0.289703166;-0.065993019;-0.024393335;-0.988133305;0.057821746;0.111004955;-0.297406699;-0.412920832;0.044286607;-0.97661415;0.096305682;-0.097735269;-0.29923195;-0.570043987;-0.029817719;-0.951491107;-0.007720782;0.215123531;-0.076800971;-0.097083148;-0.108393632;walk;4;
19.995;-0.264364764;-0.091825171;0.954318327;0.046383024;-0.012602488;0.109193129;-0.968470175;0.047330198;0.221728047;-0.075016908;-0.498911601;-0.036776732;-0.971079624;0.052768739;-0.035605371;-0.064530417;-0.633837924;-0.053018087;-0.950964327;0.091691367;0.259577946;-0.232392627;0.046635909;0.110913598;walk;4;
20.095;-0.270218182;-0.062183264;0.978319689;0.076019621;-0.038716442;0.105488072;-0.981447076;6.85E-02;0.239134306;-0.22966581;-0.55724618;-0.156331172;-0.982545227;0.102362527;0.024238236;-0.191189299;-0.759464616;-0.202037929;-0.922306986;0.047859691;0.297391779;-0.22219616;0.088551752;0.163814633;walk;4;
20.195;-0.204740695;-0.062073964;1.054096131;0.729076881;-0.4808788;0.335342677;-1.121186281;0.040198231;0.219864248;0.089911723;-0.734488484;-0.331667662;-1.116021035;0.096160288;0.021355712;0.154678681;-0.719486216;-0.306861429;-1.065355183;0.002738335;0.320799283;-0.257419023;-0.032730677;-0.186993945;walk;5;
20.295;-0.185769999;-0.21267178;0.967047754;1.532601188;-1.790635557;-0.129717798;-1.109356262;-0.053193094;0.15744677;0.729417401;-1.21702838;-0.494167857;-1.094633783;-0.016270591;-0.049609719;0.828223577;-0.153697439;-0.295171004;-1.014822779;0.051580642;0.26835826;-0.313601151;-0.049333395;-0.183772293;walk;5;
20.395;-0.407132191;-0.329350245;0.78652472;1.325970176;-3.082624286;-0.793798448;-1.005577329;-0.03594333;0.248331923;0.291140985;-1.732759642;-0.331547477;-0.989390083;-0.147281007;-0.183000116;0.402881597;0.861667398;-0.203293319;-0.982142324;-0.019487965;0.094440034;-0.131124559;-0.008258319;0.035574256;walk;5;
20.495;-0.807711022;-0.401075431;0.958167344;1.136602948;-3.612745436;-0.255981591;-0.935211158;-0.076440205;0.523946204;-0.284935369;-1.754922998;0.036576864;-1.142892616;-0.142286084;-0.135699868;-0.234880299;2.133141328;-0.181779332;-0.977897389;-0.076581594;0.127826303;-0.190528341;0.070503402;0.15333676;walk;5;
20.595;-0.464436154;-0.475791624;1.015958574;-0.366705675;1.048052817;1.42654409;-0.428967476;-0.108694975;0.663720317;-0.312221178;0.544970132;0.441024906;-1.116073007;-0.137954985;-0.017420071;-0.538994156;2.222316999;-0.069442169;-0.979116831;0.018842996;0.208830282;0.091275575;0.076862514;0.176777831;walk;5;
20.695;-0.158102546;-0.516755889;0.698840258;-1.671386599;3.989005242;2.238244401;-0.408630142;-0.122829519;0.533056702;-0.097760897;3.754084453;0.338482813;-0.867782957;-0.068050802;0.069704294;-0.340794466;1.132260894;0.080684167;-0.902864859;-0.114742124;0.277345033;0.209448566;0.053123041;0.18723311;walk;5;
20.795;-0.907105519;-0.853716498;0.912734177;-2.736073912;3.922403995;0.083675083;-1.022009217;-0.101842316;0.39162915;0.088836872;4.680541891;0.017360826;-0.798847996;-0.085898447;-0.212764751;0.060606581;-0.209098576;0.059290034;-0.909202117;-0.080483048;0.29927558;0.252373502;0.033047768;-0.106854778;walk;5;
20.895;-1.295781599;-0.416033401;0.432183026;-1.605266263;1.256239629;-1.455204964;-1.206181094;-0.060516145;0.154490633;0.118570687;1.33876753;0.114415764;-0.925612512;-0.060043791;-0.503353333;0.08917005;-0.40832922;0.13451901;-0.964858632;-0.086054443;0.338259148;0.381882127;-0.032610959;-0.118592576;walk;5;
20.995;-0.279237153;-0.328341567;1.041011885;0.566447289;-1.498641768;-0.18579643;-1.124884701;-0.080419043;-0.092479224;0.314148734;-0.925444559;0.188919898;-1.043007637;-0.108523614;-0.40539832;0.263372754;-0.418720151;0.253050936;-1.059870598;-0.122615112;0.31486362;0.265008234;-0.047431605;0.097417418;walk;5;
21.095;-0.340506115;-0.235104222;0.994191746;-0.271823474;-0.478838189;-0.316690309;-0.969519986;0.034188567;0.072020061;0.017987038;-0.898933079;0.250068893;-0.941413006;0.012261334;-0.210373371;-0.050035615;-0.597171727;0.244846489;-0.976888064;-0.0767503;0.181949512;0.087059397;-0.058059129;-0.020143794;walk;5;
21.195;-0.303577091;-0.123369269;0.992115769;-0.244549653;-0.154043327;-0.149153779;-0.985985851;0.044425105;0.06705761;0.064515286;-0.787465635;0.232855466;-0.968054213;0.086417322;-0.160773828;-0.005851703;-0.589250828;0.242528373;-0.965172037;0.039277526;0.077395384;0.119710312;0.047648169;0.009472199;walk;5;
21.295;-0.253421679;-0.207612076;0.948384658;0.077412162;-0.025026736;0.010176982;-0.979961591;0.052918514;0.231067006;0.244377479;-0.577250804;0.133911654;-1.002927158;0.053113082;-0.079918612;0.192207105;-0.586701463;0.201823945;-0.999310809;-0.02778467;0.167748302;0.279824022;0.011210767;-0.102086835;walk;5;
21.395;-0.246406668;-0.185010691;0.940300761;-0.389257125;-0.076609307;-0.085204565;-0.979526715;0.066097238;0.197901112;-0.299891919;-0.360206838;0.097299541;-0.984026093;0.050954921;-0.10439064;-0.315618976;-0.667116255;0.009171672;-0.941192458;-0.038447983;0.216360575;0.080128163;-0.052599827;-0.146148756;walk;5;
21.495;-0.271594482;-0.089590684;0.961123123;-0.297329947;-0.065260148;-0.023455958;-0.979902189;0.074958025;0.162408678;-0.340597579;-0.391918359;0.022728151;-0.974070593;0.093486082;-0.090723692;-0.33496972;-0.597049574;-0.066416393;-0.964128863;0.039303437;0.211341154;-0.164253224;-0.026141133;0.019611913;walk;5;
21.595;-0.275199579;-0.080586946;0.966343953;-0.153750724;-0.018282442;0.020243256;-0.97413391;0.067338985;0.225513982;-0.321567732;-0.437611947;-0.070000746;-0.981624596;0.084319908;-0.016866129;-0.295643003;-0.66264745;-0.145007701;-0.93058937;0.023616002;0.27521607;-0.284770633;0.094181317;0.195362835;walk;5;
21.695;-0.258671291;-0.05038541;0.999482231;0.263455617;-0.057031912;0.157547782;-1.010898977;0.069662095;0.2229483;-0.114510422;-0.541199293;-0.22398209;-1.011606015;0.118229303;0.012124781;-0.06248321;-0.674919964;-0.244131132;-0.951356623;0.003646792;0.318453848;-0.288618627;-0.037794695;0.065440876;walk;5;
21.795;-0.189076327;-0.12502218;1.036388801;0.734896252;-0.741335907;0.125300804;-1.131133222;-0.004333715;0.211242876;0.116238821;-0.729719425;-0.38167758;-1.127024946;0.043675357;-0.004720266;0.196327795;-0.562310366;-0.346750466;-1.087939259;0.013196132;0.266912495;-0.302155771;-0.024474064;-0.139931215;walk;5;
21.895;-0.210500049;-0.173805906;0.953669108;1.449616559;-2.029975254;-0.216705287;-1.105026997;-0.002105375;0.068447851;0.650511346;-1.36358806;-0.433144966;-1.053658552;-0.030424212;-0.21341295;0.746837686;0.271290019;-0.224934532;-1.009125831;-0.026981204;0.191107982;-0.28390021;-0.010155206;0.004207017;walk;5;
21.995;-0.492948206;-0.331283715;0.822787382;1.067094459;-3.655458586;-0.740104496;-1.046587416;-0.060589489;0.316740065;-0.060532448;-1.983150279;-0.20537963;-1.037368812;-0.132466866;-0.227027184;0.062098697;1.68336614;-0.225155402;-0.941376672;-0.091623437;0.104163363;-0.107471907;0.029586112;-0.059924685;walk;5;
22.095;-0.80183165;-0.38113296;1.067463138;0.586931592;-2.128643333;0.214037324;-0.664072138;-0.075498511;0.683775567;-0.301378671;-1.082725939;0.141733382;-1.154601462;-0.142954699;-0.064901533;-0.295478044;2.218012314;-0.172900135;-0.976774608;-0.040590743;0.213622181;-0.068598797;0.106970747;-0.009305457;walk;5;
22.195;-0.208274667;-0.379516561;0.765213085;-0.832271154;2.53142002;1.507589542;-0.341752267;-0.129000966;0.598403702;-0.254080013;1.801108493;0.40166392;-0.982084691;-0.119231846;-0.012223042;-0.472181316;1.618833153;-0.053683944;-0.93396186;-0.039607669;0.26093617;0.037480852;0.029128295;0.150893508;walk;6;
22.295;-0.341333524;-0.637063994;0.817278009;-1.292395788;3.939385523;2.011647506;-0.647628601;-0.158399033;0.43691651;-0.077307107;4.151328984;0.12830351;-0.785204368;-0.093689621;-0.075212916;-0.150440789;0.367150544;0.004014707;-0.934106329;-0.117687396;0.288726505;0.057414187;0.067524155;0.095704042;walk;6;
22.395;-1.125218494;-0.664136214;0.774171019;-2.439904036;3.128466717;-0.903023631;-1.170452155;-0.088898072;0.248025096;0.001983264;3.609246539;-0.026610794;-0.840858765;-0.094698674;-0.440996188;0.016173985;-0.455103426;-0.022496673;-0.889408582;-0.069841869;0.361333621;0.138216716;0.056456829;-0.070966529;walk;6;
22.495;-0.860322026;-0.282058691;0.583511197;-0.064395643;-0.338995968;-0.651484588;-1.154036112;-0.059925029;0.004813202;0.395237261;-0.190115435;0.120651799;-0.94989359;-0.085389635;-0.534105666;0.35163071;-0.305647353;0.216540079;-0.947733459;-0.048587564;0.361441941;0.185103951;0.00814761;0.157020917;walk;6;
22.595;-0.342695606;-0.349769927;1.1153838;0.397803487;-1.000919729;0.043570662;-1.058078542;-0.029492988;0.100176615;0.187941197;-1.020890164;0.264116653;-1.035284922;-0.051031503;-0.258170224;0.095395335;-0.341950129;0.308423844;-1.092602661;-0.18481386;0.297307023;0.126260075;-0.066249767;0.25005558;walk;6;
22.695;-0.27410288;-0.261921234;0.944087072;-0.287675398;-0.201473203;-0.22785266;-0.970102585;0.013548239;0.115351547;0.065362496;-0.624154273;0.27783309;-0.94818584;0.016396737;-0.205205366;-0.029765904;-0.903070648;0.284030777;-0.944139063;-0.06555932;0.189236844;0.110437574;-0.100521977;-0.072282027;walk;6;
22.795;-0.252591155;-0.2283257;0.945574331;-0.329761083;-0.085905567;-0.164305401;-0.985863887;0.034661085;0.114993645;-0.001622585;-0.628218778;0.230252868;-0.966411361;0.043920486;-0.176456434;-0.072589929;-0.70766152;0.218576461;-0.959667949;0.00276286;0.100866936;0.186933176;-0.053182098;-0.08378969;walk;6;
22.895;-0.259304954;-0.195830252;0.952436215;-0.261569777;-0.065308872;-0.101226021;-0.98406131;0.067901186;0.224327758;-0.066316508;-0.462204859;0.144438652;-0.999164892;0.076572352;-0.075686406;-0.106499068;-0.712054958;0.118573713;-0.984599694;-0.042282962;0.192476572;0.253050523;-0.05239007;-0.191108398;walk;6;
22.995;-0.263516502;-0.138993199;0.962053371;-0.305338902;-0.072463057;-0.059747228;-0.985823424;0.067255096;0.162677774;-0.269395848;-0.405412188;0.058599589;-0.983891925;0.08286017;-0.091488888;-0.275351103;-0.655107454;-0.01600476;-0.955488587;-0.060143765;0.195085415;0.038702243;-0.118042599;-0.273553442;walk;6;
23.095;-0.258739078;-0.145081976;0.945875044;-0.100084404;-0.061047819;0.056883249;-0.965945042;0.059326129;0.225406526;-0.2079934;-0.470430024;-0.008684002;-0.970097521;0.057092369;-0.049881961;-0.199351745;-0.652788996;-0.060155643;-0.942874819;0.100227067;0.244243828;-0.230225456;0.027800014;0.004050852;walk;6;
23.195;-0.271251257;-0.116054775;0.972513682;-0.130841239;-0.119408285;0.020953544;-0.985021069;0.053160602;0.2520554;-0.389364925;-0.507517126;-0.097572596;-0.992112674;0.07835424;0.024537178;-0.357561124;-0.798847064;-0.183316537;-0.939111279;0.04090474;0.266752283;-0.246898754;0.101303629;0.266480169;walk;6;
23.295;-0.23019646;-0.087746459;1.031479386;0.420562857;-0.438079226;0.097675561;-1.088410061;0.048692489;0.223082008;-0.072496867;-0.69035388;-0.287935432;-1.078633429;0.119260653;0.024464316;-0.011696351;-0.736790833;-0.296901389;-1.012914983;0.018533647;0.33776027;-0.242353271;0.01191724;0.054414363;walk;6;
23.395;-0.201605254;-0.112238521;1.028775281;1.452069308;-1.627954935;-0.221548011;-1.166919787;0.018430937;0.089012869;0.766746532;-1.193899118;-0.536018798;-1.128196678;0.088561322;-0.099559829;0.871693246;-0.282007537;-0.330365388;-1.08738631;0.022076497;0.269899539;-0.059031942;0.009194433;-0.260463445;walk;6;
23.495;-0.274346329;-0.277291013;0.781679322;1.801177124;-3.40464419;-0.811148452;-1.046159254;0.024710191;0.175337214;0.506728501;-1.900472933;-0.424542581;-1.002590719;-0.101320104;-0.249670854;0.641600044;1.120277551;-0.207776326;-0.936375389;-0.08063782;0.120681224;-0.147581366;-0.014681474;-0.145865307;walk;6;
23.595;-0.924888835;-0.358831446;0.713766499;1.615422234;-4.453165021;-0.316612205;-0.834526641;-0.053433604;0.643832089;-0.389377664;-1.67611;0.050152291;-1.149628212;-0.144074945;-0.057188373;-0.310642909;2.251742826;-0.262471823;-0.987841886;-0.068716433;0.119269475;-0.147799006;0.030284145;-0.129303372;walk;6;
23.695;-0.800531005;-0.761418071;0.76417127;-0.081984462;0.430747683;1.411744285;-0.403508838;-0.155006246;0.770624876;-0.314757564;0.332593829;0.440054772;-1.122940783;-0.153763573;0.007592123;-0.5377956;2.068816131;-0.084948325;-0.983097564;0.016613234;0.22818578;-0.027749332;0.075667042;0.141930208;walk;6;
23.795;-0.349598162;-0.52314922;0.345852852;-2.146478678;3.755226257;1.387450687;-0.384051149;-0.16005551;0.609105478;-0.130375699;2.663923743;0.195412894;-0.866849145;-0.099105963;-0.02302691;-0.233414456;1.154186986;-0.036072891;-0.914664682;-0.101863188;0.240373345;0.122098082;-0.000417563;0.111149399;walk;6;
23.895;-0.543821735;-0.701431077;0.714655987;-1.60553223;3.617500726;1.383369672;-0.782686461;-0.143490785;0.455545874;0.074091671;3.905715598;-0.120741564;-0.814606143;-0.115770566;-0.158496636;0.139289075;-0.044122963;-0.034416653;-0.944509895;-0.072350008;0.278194292;0.138309948;0.064768696;-0.026783073;walk;6;
23.995;-1.083127713;-0.607645511;0.656367024;-2.401349091;2.537317182;-1.06441558;-1.161501679;-0.067742872;0.22558999;-0.097827957;2.846727994;0.000358527;-0.885904014;-0.11101937;-0.46268343;-0.085573356;-0.552508562;-0.032079604;-0.913440448;-0.061324166;0.323168417;0.207873373;-5.17031E-05;-0.010126105;walk;6;
24.095;-0.702488631;-0.286769959;0.692764253;0.071071939;-0.445448869;-0.276069739;-1.151490201;-5.79E-02;-0.008471146;0.214302133;-0.274685048;0.163710116;-0.993305165;-0.07695002;-0.475226817;0.165801046;-0.410922612;0.212236532;-1.017136897;-0.072892095;0.309041082;0.187406151;-0.013274754;0.162957886;walk;6;
24.195;-0.312700155;-0.368531427;1.043717169;0.120298831;-0.634070223;-0.025839879;-1.02537188;-0.038644309;0.050323982;0.112397924;-0.877232551;0.285949947;-0.986292374;-0.053108705;-0.270017103;0.024638785;-0.46344124;0.305723002;-1.023611475;-0.118641051;0.282849913;0.162900495;-0.023708454;0.207357644;walk;7;
24.295;-0.250179556;-0.264845348;0.933353972;-0.60396477;-0.169771487;-0.307749133;-0.974547848;0.015107842;0.102903227;-0.158638455;-0.647040843;0.300234865;-0.949195492;0.001858505;-0.201185721;-0.241444807;-0.799952866;0.239290211;-0.948010859;-0.079014652;0.188315088;0.123323064;-0.021074466;0.043319578;walk;7;
24.395;-0.258820501;-0.168516091;0.958807557;-0.529565104;-0.115391461;-0.201807341;-0.988750385;0.050302474;0.117909208;-0.207065222;-0.599476014;0.231559484;-0.974222152;0.07225221;-0.141771244;-0.264759063;-0.683625069;0.162492549;-0.979423038;-0.004680511;0.117726895;0.153316873;-0.041497178;-0.11700143;walk;7;
24.495;-0.256834633;-0.152417487;0.957837525;-0.438028658;-0.091804704;-0.154603392;-0.987439653;0.060781154;0.207622882;-0.261568738;-0.450963359;0.13278448;-0.999988929;0.064325169;-0.06434124;-0.288204666;-0.666329899;0.056551428;-0.978101783;-0.025751785;0.174306098;0.298619359;0.025224375;-0.237424173;walk;7;
24.595;-0.281240769;-0.045792303;0.98134236;-0.225556261;-0.089830304;-0.020232989;-0.992556328;0.073841809;0.13948384;-0.245220663;-0.416616849;0.030875714;-0.988654682;0.110831322;-0.081909865;-0.245049067;-0.566697806;-0.032724806;-0.964416841;-0.029453202;0.221182103;-0.015402221;-0.008328652;-0.188510147;walk;7;
24.695;-0.275769212;-0.102159544;0.948108892;0.174903122;-0.029985207;0.154095271;-0.957842333;0.070952558;0.249303586;0.008476393;-0.475164882;-0.068501428;-0.969711353;0.075198688;-0.018178713;0.024833922;-0.591758862;-0.064150882;-0.980874143;0.061911056;0.244626642;-0.203089357;0.15188953;-0.086888563;walk;7;
24.795;-0.255150626;-0.109988136;0.967727147;-0.085565863;-0.121587574;0.063262702;-0.99478899;0.054723144;0.254557093;-0.420588705;-0.466099106;-0.136967365;-1.000504679;0.060408688;0.013302951;-0.380776167;-0.801205397;-0.225351706;-0.883544589;0.06851497;0.358816825;-0.287861623;0.273620015;0.042933268;walk;7;
24.895;-0.25689677;-0.081353334;1.02701915;0.422199763;-0.454566091;0.068133119;-1.067784415;0.002182758;0.206378228;-0.075498488;-0.682169706;-0.333916792;-1.061959109;0.090393551;0.044181221;-0.006461637;-0.627604696;-0.34183169;-0.952499667;0.082106049;0.369919349;-0.303973656;-0.021839533;0.048436651;walk;7;
24.995;-0.22098811;-0.09501041;1.01522229;1.481947387;-1.44810308;-0.108883985;-1.136218364;0.032964774;0.103349107;0.86394568;-1.165395044;-0.544746951;-1.103548389;0.06208178;-0.109952568;0.96966334;-0.14815599;-0.312919105;-1.06294028;-0.002162151;0.291870598;-0.328300508;-0.020643556;-0.0470434;walk;7;
25.095;-0.304138587;-0.313602503;0.812798473;1.4607503;-3.201965147;-0.501554666;-1.048126963;-0.028355881;0.248391396;0.234378946;-1.861328565;-0.306362511;-1.023025626;-0.15733807;-0.22344475;0.347958322;1.140390306;-0.210449109;-0.968727566;-0.035986483;0.156448098;-0.432070808;0.063394332;0.061360881;walk;7;
25.195;-0.874704915;-0.392644805;0.871120236;1.070130321;-3.755498889;-0.071103231;-0.845286479;-0.098240642;0.637549223;-0.468392084;-1.670307848;0.112323683;-1.155500725;-0.170568673;-0.064641273;-0.410280507;2.152128494;-0.272420814;-0.99126197;-0.033018851;0.178961389;-0.288239978;0.102059482;0.117399768;walk;7;
25.295;-0.487226837;-0.525788098;0.847940855;-0.24963789;0.652421094;1.381321643;-0.402560794;-0.144869403;0.692043828;-0.370639322;0.469542679;0.462951817;-1.088470298;-0.142325614;-0.006367413;-0.583544028;1.998130036;-0.119886201;-0.934232664;-0.000049504;0.287844675;-0.013793794;0.072856852;0.256606246;walk;7;
25.395;-0.264293435;-0.506216486;0.623985612;-1.700552784;3.646317909;1.417598216;-0.433789256;-0.131006602;0.529871894;-0.098132789;3.142129804;0.220143197;-0.847476229;-0.07429771;-0.028619329;-0.239651906;1.016740109;0.012656783;-0.919085477;-0.116369852;0.29901835;0.126132459;0.037336983;0.131701118;walk;7;
25.495;-0.657789839;-0.69914792;0.894656169;-1.857125138;3.616859008;0.885341887;-0.920289021;-0.097153011;0.367708402;-0.022602822;4.184169036;0.018892669;-0.797801839;-0.105776024;-0.24495597;-0.03142929;-0.076635462;0.003595488;-0.885249669;-0.093748204;0.35967616;0.136270342;0.055718908;-0.149048376;walk;7;
25.595;-1.052777633;-0.482266817;0.667630012;-2.173579938;2.109979307;-1.190651512;-1.173834975;-0.072581542;0.111288567;-0.178682371;2.400543565;0.142518023;-0.891633915;-0.069656603;-0.495860418;-0.212327187;-0.327108001;0.068322812;-0.902549678;-0.025213622;0.3788012;0.234621652;-0.049449396;-0.120802503;walk;7;
25.695;-0.515095826;-0.274060088;0.730571746;0.292768874;-0.615411512;-0.632712394;-1.119973418;-0.126985204;-0.073020159;0.669619725;-0.410676367;0.14118517;-0.97863184;-0.109358708;-0.45988337;0.620452752;-0.315335462;0.288400082;-0.992322118;-0.062683898;0.396530744;0.321404229;-0.105344819;0.04813896;walk;7;
25.795;-0.322100356;-0.37704138;1.073272215;0.312918707;-0.967214461;-0.121774839;-1.034708325;-0.050848596;0.000809461;0.236741937;-0.924400877;0.252853126;-0.980041892;-0.096526195;-0.333739666;0.159940745;-0.441044782;0.304817483;-1.026491102;-0.146867984;0.347969209;0.267157013;-0.098909608;0.141609421;walk;7;
25.895;-0.267874141;-0.216210822;0.950427487;-0.39602527;-0.222597261;-0.298091123;-0.965232543;0.016193464;0.060740542;0.024206433;-0.745186627;0.297724313;-0.935663232;0.010356596;-0.216559803;-0.063368272;-0.754835631;0.291936309;-0.94676012;-0.037116482;0.183570615;0.188785976;-0.064905429;-0.017373561;walk;7;
25.995;-0.274933713;-0.183107919;0.961426122;-0.414538861;-0.096694681;-0.188713699;-0.985205331;0.042175029;0.116052349;-0.029746582;-0.683861206;0.279681421;-0.970049844;0.053274346;-0.157849971;-0.109773369;-0.64206728;0.258937425;-0.96514576;0.031045054;0.137206062;0.31367871;0.03866732;0.081728581;walk;7;
26.095;-0.245644251;-0.162812101;0.963697863;-0.394022455;-0.080229257;-0.103527889;-0.995468645;0.071894928;0.212746651;-0.195507765;-0.492191081;0.17212873;-1.005126955;0.076270955;-0.083445124;-0.236925948;-0.69159231;0.109439005;-0.983371369;-0.145992368;0.269598384;0.183383805;0.019595365;-0.162862504;walk;7;
26.195;-0.269462052;-0.071845257;0.957289711;-0.4659869;-0.100794495;-0.072199145;-0.980172829;0.080691942;0.141260913;-0.443054133;-0.406982056;0.08269891;-0.968774617;0.094878159;-0.107953453;-0.449537238;-0.670207706;-0.035013415;-0.902084134;0.000359323;0.273137417;-0.203082034;-0.093070454;-0.129779561;walk;8;
26.295;-0.286156364;-0.012631551;0.984320123;0.018628452;-0.049294221;0.074831041;-0.986450732;0.072076551;0.148316997;-0.080667327;-0.541319309;-0.033738471;-0.978249469;0.11915033;-0.067651803;-0.070043628;-0.630980723;-0.052746092;-0.95473035;0.064220416;0.261057129;-0.263901808;0.026291536;0.058741025;walk;8;
26.395;-0.263870552;-0.102390324;0.956285593;0.331645282;-0.068605502;0.159062047;-0.96180209;0.069095061;0.281182935;0.127161728;-0.625496807;-0.12553308;-0.980193443;0.071622649;0.022830116;0.153315279;-0.679460897;-0.091568234;-0.903937756;0.043843429;0.327294623;-0.168339776;0.037622251;0.095846987;walk;8;
26.495;-0.231782402;-0.115608598;1.007330116;0.236361297;-0.331982693;0.01306217;-1.047421357;0.045526163;0.30826724;-0.146112972;-0.642498283;-0.233142312;-1.063962928;0.078508115;0.067699042;-0.089458225;-0.774421586;-0.260366116;-0.996816567;0.001593847;0.343614181;-0.074210606;-0.132091332;-0.04773429;walk;8;
26.595;-0.233695312;-0.095458733;1.025502623;0.96755673;-1.307330544;-0.180080323;-1.125130902;0.018866533;0.170118226;0.429173603;-0.933136687;-0.442289768;-1.111014784;0.093210456;-0.023065186;0.520136624;-0.514243484;-0.327545004;-1.051421837;-0.01673403;0.323531623;-0.150716696;-0.082623319;-0.238085582;walk;8;
26.695;-0.288685252;-0.215950786;0.834967132;1.391013549;-2.608525198;-0.460666848;-1.024213074;0.036140056;0.177490363;0.491227421;-1.576454976;-0.388848135;-0.992885922;-0.067988973;-0.194913688;0.595455293;0.460049633;-0.215990609;-0.981983118;-0.012922672;0.160777047;-0.271362981;-0.044133885;-0.129905655;walk;8;
26.795;-0.738502747;-0.337446558;0.78102402;0.655634704;-4.038799897;-0.490498398;-0.975213076;-0.098836889;0.471228989;-0.548634512;-1.923387624;-0.015632305;-1.088612864;-0.154855696;-0.099324609;-0.429450671;1.738987998;-0.351507034;-0.971024368;-0.05614315;0.119444317;-0.247276123;0.050452755;-0.079095877;walk;8;
26.895;-0.832710168;-0.402542562;1.06863774;0.803096281;-1.143153418;1.420171228;-0.554870899;-0.079046333;0.707989262;-0.375476106;-0.554308857;0.266663353;-1.162877911;-0.121361356;0.003366511;-0.435994849;2.179697533;-0.173023505;-0.989350628;0.036049305;0.188282458;-0.086645177;-0.002404578;0.095156983;walk;8;
26.995;-0.223958412;-0.477750205;0.605812497;-0.918852739;3.200808765;2.231719063;-0.409475019;-0.128288465;0.607807026;0.003096522;2.332637876;0.205837319;-0.985776829;-0.065110634;0.008045772;-0.180725827;1.545362041;0.092047715;-0.943804691;-0.041408519;0.230587986;0.180256103;0.033545345;0.261213251;walk;8;
27.095;-0.465847718;-0.665324873;0.791845556;-1.983559412;3.920645178;1.18500164;-0.737555927;-0.116499961;0.472821698;0.2143863;4.147831434;-0.090420901;-0.804448554;-0.108570407;-0.114835358;0.204845937;0.533223997;0.103156634;-0.917690008;-0.115065471;0.286504416;0.151218866;-0.00757009;0.055968242;walk;8;
27.195;-1.035168689;-0.644775482;0.783579352;-2.617522608;2.961238286;-1.146537223;-1.120922508;-0.072761447;0.273392384;0.038884308;3.411716178;0.012010108;-0.843554057;-0.099841006;-0.399211354;0.031270121;-0.248689375;0.033850617;-0.92553605;-0.032223902;0.333200672;0.298205674;0.046583974;-0.085751324;walk;8;
27.295;-0.865931865;-0.28753525;0.544721038;-0.380767522;0.064052989;-0.995467273;-1.116270262;-0.078594084;0.060772235;0.466194426;0.152334588;0.10498913;-0.925619225;-0.077611544;-0.458780767;0.425467993;-0.30768711;0.216937107;-0.948837992;-0.071421054;0.347389162;0.351177837;0.001017666;0.034098086;walk;8;
27.395;-0.311567311;-0.322933274;1.122564691;0.40209055;-1.178740187;-0.148660391;-1.092237363;-0.042843279;-0.028363068;0.26865788;-0.949568591;0.232362924;-1.028839949;-0.076224156;-0.369556728;0.191368507;-0.3233888;0.297268042;-1.079432152;-0.188252749;0.304459665;0.16793629;-0.020356511;0.163237064;walk;8;
27.495;-0.279313118;-0.260848527;0.949032057;-0.222336548;-0.267472446;-0.219664337;-0.959386727;-0.004910785;0.116393906;0.121235207;-0.72275567;0.297137883;-0.940141186;-0.015536129;-0.206978502;0.020203183;-0.706503158;0.320324846;-0.946259506;-0.040266957;0.226190929;0.115227975;-0.058222796;-0.082013326;walk;8;
27.595;-0.259285507;-0.205293154;0.960622977;-0.311278224;-0.105718897;-0.203850389;-0.987147565;0.018933745;0.091327984;0.075188299;-0.674810497;0.264764423;-0.962248662;0.030605179;-0.20205373;-0.012201249;-0.643113912;0.274990376;-0.960895599;0.016726545;0.118680533;0.160140453;-0.010525021;-0.026092651;walk;8;
27.695;-0.246154607;-0.198997809;0.947420677;-0.434521885;-0.086302152;-0.178437893;-0.981854386;0.056808774;0.222986678;-0.131829542;-0.511931559;0.219057138;-0.994554943;0.052265813;-0.102780983;-0.194192922;-0.63461006;0.166928877;-0.974442887;-0.051174642;0.193007105;0.313804935;-0.001773692;-0.120055724;walk;8;
27.795;-0.266539762;-0.09935394;0.961901295;-0.527383221;-0.09552228;-0.155221087;-0.982184676;0.083575346;0.198682535;-0.385435701;-0.336840401;0.136736926;-0.987734356;0.090874164;-0.090608031;-0.408844476;-0.694810563;0.019238917;-0.962438303;-0.035201213;0.23040997;-0.014642793;-0.053330551;-0.141421546;walk;8;
27.895;-0.281011518;-0.023973137;0.975827738;-0.19083605;-0.050942005;0.036244975;-0.98584804;0.082283645;0.132432259;-0.236381424;-0.417832062;0.03949914;-0.9712146;0.117832397;-0.107676818;-0.238530119;-0.618497736;-0.02395893;-0.935852134;0.011330331;0.25591552;-0.286463089;-0.027228003;-0.012083001;walk;8;
27.995;-0.262188829;-0.07348928;0.962911243;0.150528329;-0.074839036;0.12919133;-0.972263626;0.066522113;0.233152911;0.007627405;-0.57467347;-0.04980408;-0.977671775;0.074537321;-0.035272705;0.019730873;-0.664715968;-0.046286841;-0.938986187;0.090532401;0.280914403;-0.350781587;0.126723308;0.186700706;walk;8;
28.095;-0.25920731;-0.101020176;0.977197886;0.043098239;-0.223670124;0.068817126;-0.992378226;6.64E-02;0.299786857;-0.282171434;-0.638699327;-0.128606344;-1.004485331;0.072610984;0.032778359;-0.243867201;-0.772645386;-0.191537842;-0.954882507;-0.011165581;0.316456844;-0.244968944;0.133180698;0.152989709;walk;8;
28.195;-0.229799528;-0.041526862;1.047913219;0.499538029;-0.883830932;0.098021278;-1.120827596;0.047474185;0.249586365;-0.05694297;-0.824307248;-0.284084041;-1.12551938;0.111141404;0.031605935;0.011230113;-0.648457354;-0.288531895;-1.016632356;-0.046636834;0.401750063;-0.48560094;0.012895071;0.016529941;walk;9;
28.295;-0.223699306;-0.143331155;0.92595554;1.069024795;-2.335460532;-0.255276485;-1.098359966;0.006995545;0.197169289;0.315564993;-1.294446563;-0.421184389;-1.083922545;0.001207663;-0.106388522;0.426806983;-0.044196672;-0.309207394;-1.033691556;0.027116566;0.292186432;-0.517329276;-0.087362436;-0.124620075;walk;9;
28.395;-0.61513468;-0.269856485;0.719875718;0.384247568;-3.838176657;-0.700446462;-0.98335442;-0.093819038;0.306326305;-0.329482471;-1.71062927;-0.233924168;-0.982732624;-0.174387175;-0.16135751;-0.174572439;1.050499324;-0.381444081;-0.94274931;-0.006288217;0.108973113;-0.275675557;-0.008781922;-0.02116402;walk;9;
28.495;-1.025824061;-0.19465263;1.02489547;0.355058738;-2.940190241;0.490114588;-0.81098341;-0.079221148;0.582254657;-0.523725074;-1.493825212;0.076469324;-1.114132068;-0.132379403;-0.083000642;-0.416599894;2.066421665;-0.340036322;-0.979259183;-0.070624961;0.156474312;-0.116892595;0.118286618;-0.030001956;walk;9;
28.595;-0.439637682;-0.24515863;0.846949921;-0.304369495;1.780671475;1.551784434;-0.44857854;-0.11688439;0.668381813;-0.32816216;0.715234815;0.436658453;-1.09023299;-0.146646667;-0.060663375;-0.541217915;2.026575101;-0.096292783;-0.962740336;0.00698101;0.274632479;0.13006488;0.174445547;0.088334227;walk;9;
28.695;-0.313095345;-0.407841683;0.772874521;-1.066931678;3.932597762;1.762117838;-0.515362799;-0.106969995;0.510091023;-0.102409483;3.323510822;0.430815564;-0.883028004;-0.073112262;-0.073303441;-0.423672794;1.255354521;0.114213439;-0.887058014;-0.094365037;0.33095377;0.210887855;0.100730507;0.065892764;walk;9;
28.795;-0.65269256;-0.699398339;1.003937759;-1.421143343;3.845610215;1.109808722;-0.936648893;-0.129826787;0.333066651;0.168126315;4.534315788;0.109983649;-0.772126447;-0.100496867;-0.223590019;0.051043077;0.148144818;0.184518307;-0.886852579;-0.059994222;0.348590863;0.246616404;0.097327632;-0.121327198;walk;9;
28.895;-1.424519444;-0.482590419;0.429652981;-1.68476731;1.877854553;-1.610600313;-1.218042508;-0.093383363;0.215932078;0.425989617;2.088789319;0.059126617;-0.880420428;-0.056848466;-0.494397955;0.385692435;-0.185879343;0.181809807;-0.892729099;-0.033357686;0.415067999;0.444260311;0.008466848;-0.173281519;walk;9;
28.995;-0.478900253;-0.403678316;0.90052386;0.760018914;-1.2151565;-0.730575083;-1.136036687;-0.114770356;0.023490804;0.936604756;-0.946549151;0.134026532;-1.025264275;-0.16365696;-0.439547268;0.858808161;-0.423701696;0.393864759;-1.042440928;-0.064591289;0.455094475;0.483979782;-0.181038804;-0.004769382;walk;9;
29.095;-0.407833475;-0.377345252;1.022101944;0.123750481;-0.51157935;-0.250985395;-0.990290315;-0.038904953;0.115769851;0.373221342;-0.986529183;0.309918406;-0.960663583;-0.072328838;-0.253610785;0.250657515;-0.77637945;0.414725515;-1.00348685;-0.130906828;0.291347562;0.312832762;-0.160880348;0.108901211;walk;9;
29.195;-0.251150574;-0.293644633;0.929310175;-0.36846027;-0.075302879;-0.185236711;-0.973530347;0.012251304;0.116651865;0.0942073;-0.802078299;0.345171295;-0.944988152;0.014479587;-0.19586912;-0.023165412;-0.960669153;0.357400384;-0.94374184;-0.038056558;0.119361949;0.135369479;-0.081624653;0.009398894;walk;9;
29.295;-0.242255319;-0.230459784;0.935625408;-0.525255138;-0.07677155;-0.177188531;-0.973672283;0.050818913;0.217041209;-0.162713591;-0.634897437;0.269263926;-0.984559336;0.04804126;-0.089651981;-0.238460344;-0.840551544;0.206093086;-0.965786592;0.040618146;0.135877803;0.214186844;-0.04622348;-0.058091305;walk;9;
29.395;-0.254649275;-0.161340402;0.965233466;-0.543955914;-0.145968983;-0.101839095;-0.997132264;0.06417762;0.209416322;-0.412552032;-0.456422007;0.177757051;-1.001522068;0.07466095;-0.068982719;-0.446263699;-0.849222969;0.055348365;-0.975613622;-0.07939962;0.229796527;0.029914664;-0.026737747;-0.128488314;walk;9;
29.495;-0.277808708;-0.088755403;0.953213596;-0.418665676;-0.171206099;-0.06331783;-0.975692078;0.074550968;0.214058515;-0.467007834;-0.457088732;0.060839451;-0.978747979;0.08360713;-0.027326175;-0.468145537;-0.84251098;-0.053824354;-0.933434239;0.063139885;0.241732055;-0.144472475;0.022525758;-0.043904121;walk;9;
29.595;-0.28508674;-0.045583934;0.981699615;-0.184637636;-0.282054306;0.00315717;-1.006462171;0.05812947;0.21231552;-0.388808195;-0.562401043;-0.040223823;-1.00749231;0.09082149;0.016469329;-0.371955555;-0.799136981;-0.121160229;-0.931797795;0.055820529;0.291458766;-0.232160236;0.0983524;0.20123107;walk;9;
29.695;-0.303703368;-0.058732002;0.986492149;0.270365769;-0.562056622;-0.002709604;-1.0152522;0.045322742;0.270962626;-0.035965782;-0.725851102;-0.209715429;-1.022353291;0.097484971;0.080994608;0.00693114;-0.67807644;-0.212550269;-0.950537001;-0.023403245;0.359386376;-0.285681686;-0.042995678;0.156766923;walk;9;
29.795;-0.290262668;-0.04209827;1.006391895;0.851190255;-1.28991161;-0.070933616;-1.108858921;0.04808565;0.174787847;0.338759842;-1.034997068;-0.428142182;-1.089980362;0.110857575;-0.023044766;0.426045291;-0.445566913;-0.338070084;-1.053797767;-0.06797098;0.33229326;-0.475220022;-0.075735074;-0.204814548;walk;9;
29.895;-0.376823044;-0.200772434;0.807473984;1.164806235;-2.771160661;-0.215702968;-0.980543438;0.014055373;0.317256115;0.297236156;-1.576457273;-0.342438437;-1.015622647;-0.099509813;-0.065213039;0.399035098;0.429414491;-0.239749671;-0.979412894;0.019917249;0.215865043;-0.622072515;-0.008176251;-0.176802004;walk;9;
29.995;-0.775503457;-0.256286697;0.696925738;0.523644866;-3.536889773;-0.131706046;-0.893454705;-0.101634415;0.465163668;-0.48823416;-1.703253972;-0.051820718;-1.015927609;-0.116022686;-0.012249893;-0.376857329;1.204968183;-0.313893685;-0.978722461;0.043584299;0.093115941;-0.186537902;0.033075021;-0.129792035;walk;9;
30.095;-0.977406894;-0.367752536;0.96823331;1.229871888;-1.923105076;1.039968891;-0.717855708;-0.063201723;0.66510877;-0.101704395;-1.006402723;0.069224626;-1.142822682;-0.110420857;-0.049181675;-0.123110256;1.992605731;-0.042848353;-0.980729623;-0.030661072;0.164400106;-0.009378132;0.088068283;0.048800066;walk;9;
30.195;-0.368806839;-0.440363097;0.657321941;-0.677951925;2.480618563;1.753100566;-0.438426055;-0.121965817;0.700070709;-0.047951536;1.296465725;0.28533969;-1.082599963;-0.12126501;-0.036396236;-0.278021837;1.970421201;0.082076129;-0.962736438;-0.000459602;0.236298111;0.184507623;-0.019380269;0.103475482;walk;10;
30.295;-0.339954705;-0.506203677;0.74872885;-1.843454564;4.008467483;1.402958265;-0.543698713;-0.093151657;0.557700461;0.058132807;3.745924696;0.17341063;-0.887339411;-0.070583954;-0.03294892;-0.117005251;1.094259728;0.136476371;-0.936162874;-0.034840694;0.273511504;0.299765582;-0.016359872;0.049944035;walk;10;
30.395;-0.96930181;-0.607634412;0.935796725;-2.498389336;3.748327682;-1.041821848;-1.059792666;-0.100947775;0.370640655;0.39534862;4.184945825;-0.048384064;-0.821900346;-0.0559148;-0.274561776;0.350921627;0.031231464;0.171941838;-0.932429851;-0.070268286;0.33531376;0.233664024;0.03765307;-0.016650541;walk;10;
30.495;-1.332955249;-0.406270375;0.424322197;-0.55013399;1.036379357;-0.909971609;-1.105258206;-0.045064155;0.322333194;0.493286908;1.000011855;0.031328676;-0.857032357;-0.122053541;-0.450133949;0.453495261;-0.300345696;0.204660868;-0.89731638;0.006005186;0.379308153;0.314465786;0.007573682;0.009489764;walk;10;
30.595;-0.206844726;-0.297148611;1.065367033;0.456692144;-1.099540292;0.187630254;-1.119978523;-0.07304779;-0.029071165;0.085751586;-0.781336469;0.203851126;-1.035874982;-0.09605133;-0.414061714;0.015145452;-0.450088628;0.219802292;-1.05167023;-0.102207555;0.310393246;0.383666035;-0.12669089;0.178033942;walk;10;
30.695;-0.314726963;-0.227619683;0.971742942;-0.198058142;-0.396184129;-0.237788107;-0.969045607;0.003661951;0.143559451;0.06464998;-0.56022772;0.271904807;-0.960323241;-0.010807601;-0.206399068;-0.030730457;-0.761306702;0.277953795;-0.997231438;-0.102786344;0.26778545;0.177134923;-0.092276048;0.110309779;walk;10;
30.795;-0.265463682;-0.220554482;0.957887912;-0.548036017;-0.16276064;-0.254061253;-1.001892774;0.017935647;0.035738192;-0.146576177;-0.499323451;0.303613018;-0.949024009;0.016582826;-0.262410215;-0.23106319;-0.859576639;0.246106296;-0.921625894;-0.08687737;0.175669238;0.101531195;-0.07741407;0.048159467;walk;10;
30.895;-0.267886432;-0.12197562;0.964062653;-0.477049173;-0.089174158;-0.19097785;-0.986734367;0.063262071;0.143396573;-0.166138691;-0.544442066;0.220640615;-0.982345285;0.083216267;-0.116423546;-0.221741918;-0.633407262;0.16465691;-0.996399389;0.015359537;0.1126374;0.210752174;-0.053139911;-0.07034634;walk;10;
30.995;-0.268826007;-0.083366854;0.963418569;-0.371209202;-0.072253708;-0.136070062;-0.986759512;0.090998856;0.193202676;-0.219013883;-0.398443201;0.112699196;-0.996453445;0.105540572;-0.064094373;-0.24144715;-0.605251603;0.050119693;-0.959392411;-0.069561987;0.205838873;0.13474728;-0.077691776;-0.170265374;walk;10;
31.095;-0.282497755;-0.024525331;0.970533388;-0.095785674;-0.037598316;-0.000753296;-0.97927319;0.089277489;0.159653936;-0.094928449;-0.388485609;0.019455167;-0.980215423;0.113941789;-0.072608807;-0.096803785;-0.534010205;-0.005143451;-0.973961296;0.000732703;0.197095226;-0.040484029;-0.083119507;-0.216349721;walk;10;
31.195;-0.26707497;-0.070518452;0.954009258;0.040777591;-0.012297096;0.080559986;-0.965194848;0.070548585;0.236195478;-0.059704486;-0.436001215;-0.036394373;-0.978163115;0.065871299;-0.024091561;-0.049377017;-0.566562326;-0.049386868;-0.955604245;0.043875541;0.244967105;-0.212901713;0.035765341;-0.033838848;walk;10;
31.295;-0.260014158;-0.060963758;0.976602307;-0.04747042;-0.11592532;0.061949458;-0.992797617;0.066570131;0.254875895;-0.283967533;-0.471818694;-0.084176855;-1.003648975;0.078665982;0.02009757;-0.258630277;-0.682867859;-0.144647868;-0.937772206;0.050372066;0.293185483;-0.30288342;0.093287258;0.179479814;walk;10;
31.395;-0.26320907;-0.060535776;0.989674285;0.168139558;-0.403971527;0.043490129;-1.021800156;0.05749223;0.280999163;-0.23762855;-0.56423741;-0.222320968;-1.027415933;0.088554692;0.0645467;-0.188461375;-0.745868275;-0.265524941;-0.950588386;0.038191259;0.337491797;-0.278346771;0.000280469;0.134714578;walk;10;
31.495;-0.263184377;-0.030716724;1.027511717;0.699795848;-1.121683413;-0.082837551;-1.110779715;0.022947527;0.165300781;0.204613465;-0.894788198;-0.438232798;-1.090328514;0.110972937;0.000559764;0.289002227;-0.534986484;-0.384992667;-1.062259923;-0.017797994;0.302323122;-0.298708852;-0.075440113;-0.159681484;walk;10;
31.595;-0.286211315;-0.112889288;0.889824823;1.399608833;-2.436347517;-0.358490146;-1.048156222;0.028865175;0.190820007;0.775029707;-1.466984712;-0.476816033;-1.04826838;-0.036337386;-0.095832268;0.878868885;0.212173364;-0.231822616;-1.008102332;-0.007782958;0.215977357;-0.389779164;0.001795907;-0.100517982;walk;10;
31.695;-0.686917614;-0.279871159;0.744583685;0.631070881;-3.81355057;-0.340843227;-0.960707785;-0.064595418;0.410443744;-0.358677268;-1.887452711;-0.074702781;-1.018177101;-0.166390056;-0.110450955;-0.263163974;1.390892104;-0.276851385;-0.961935707;-0.035185934;0.088802838;-0.270171298;0.048104711;-0.000699259;walk;10;
31.795;-0.94231743;-0.325949678;1.023112713;0.687606528;-2.421049133;0.805425364;-0.692937999;-0.085792181;0.678323189;-0.457206815;-1.141837608;0.263208691;-1.160867226;-0.133758845;-0.005730248;-0.496770689;2.162434208;-0.201342895;-0.992593162;-0.033780549;0.135959953;-0.152702939;0.070172206;0.043442865;walk;10;
31.895;-0.341743732;-0.402676089;0.741943809;-0.674173195;2.703594965;2.061032448;-0.398001544;-0.11498778;0.657791073;-0.212092118;1.521088393;0.43575084;-1.07196676;-0.085647921;0.015410692;-0.485571;1.932347725;0.005871214;-0.954669745;-0.017078716;0.204635411;0.100006539;0.003275664;0.137870868;walk;10;
31.995;-0.39025572;-0.586491836;0.716288094;-1.50330271;4.045168172;1.889744426;-0.593911348;-0.122954401;0.542181298;0.116015429;3.973771166;0.143489261;-0.852116174;-0.084776717;-0.028515223;-0.053216999;0.923579917;0.169274276;-0.95284757;-0.10341575;0.23650442;0.114028607;0.036541424;0.125053393;walk;10;
32.095;-0.959470016;-0.720932422;0.822138791;-2.331839848;3.258689274;-0.529084363;-1.088141162;-9.93E-02;0.371528507;0.19757169;3.840597332;-0.015942402;-0.844374301;-0.083214214;-0.308509364;0.174054529;0.003058614;0.088623633;-0.930170504;-0.015268861;0.283603879;0.277853532;0.073324326;-0.131843096;walk;10;
32.195;-1.140409559;-0.434520385;0.478183323;-0.737233635;0.808131447;-1.110769185;-1.10650926;-0.06224341;0.236139612;0.451849945;0.873730843;0.040144315;-0.885093819;-0.090805209;-0.430995752;0.416313084;-0.228719469;0.182609109;-0.939459987;-0.116380291;0.357959493;0.287575057;0.036579929;-0.037037108;walk;11;
32.295;-0.254938262;-0.395615184;1.018613622;0.422195134;-0.963304665;0.142188108;-1.096100284;-0.080487748;0.027175054;0.072626354;-0.676767425;0.199695427;-1.027304142;-0.136787745;-0.379940219;0.00872901;-0.523638585;0.211390221;-1.040821969;-0.040481343;0.32218655;0.181026511;-0.10828121;0.105697526;walk;11;
32.395;-0.284360098;-0.291301157;0.970286971;-0.753972478;-0.215091818;-0.266712648;-0.996792856;-0.005976699;0.068638195;-0.411070712;-0.624583888;0.251398898;-0.946066938;-0.02126068;-0.266838864;-0.468226334;-0.759720058;0.114491781;-0.99909084;-0.084827936;0.230539728;0.139766654;-0.069730318;0.052398217;walk;11;
32.495;-0.197318784;-0.045362747;0.965235516;-0.81981176;-0.17409272;-0.366147718;-0.989089818;0.053525223;-0.006535815;-0.458422223;-0.595028891;0.200328106;-0.947609532;0.08366963;-0.224217703;-0.496495816;-0.732410781;0.060614759;-0.922989308;0.017943679;0.104474122;0.246181353;-0.063533184;-0.125944824;walk;11;
32.595;-0.258161596;0.015816385;1.00776994;0.215431973;-0.245819807;0.01593366;-0.993632049;0.08705767;0.082791913;0.325325096;-0.566247611;0.11543547;-0.992450062;0.138087198;-0.133305104;0.278195482;-0.465904679;0.204897664;-1.012620921;0.005044737;0.125157119;0.29944373;-0.029498243;-0.118492149;walk;11;
32.695;-0.265055847;-0.267943811;0.937177785;0.367451608;-0.065047856;0.109863246;-0.977124973;0.02067157;0.230823068;0.409278098;-0.476253184;0.055044754;-0.982651514;-0.006899042;-0.114886441;0.375603797;-0.541952209;0.171779284;-0.950102795;0.003633546;0.238547271;0.232190012;0.049265602;-0.13921273;walk;11;
32.795;-0.242282183;-0.168837904;0.941825741;-0.40195021;-0.076059053;-0.054668422;-0.973480739;0.063148594;0.221480977;-0.397659902;-0.410687864;0.064941464;-0.978871874;0.040152385;-0.088800567;-0.400422466;-0.645764604;-0.046312208;-0.954087939;0.008319974;0.249954685;0.00786025;0.009131619;0.037089292;walk;11;
32.895;-0.27242564;-0.066386657;0.974163958;-0.304100047;-0.068525605;-0.005568352;-0.98170516;0.073353171;0.187198184;-0.446485886;-0.448212038;-0.015444558;-0.976608395;0.10158179;-0.052572139;-0.428911583;-0.751654094;-0.126168383;-0.911060567;-0.009110959;0.30968018;-0.229027554;0.090471187;0.19479351;walk;11;
32.995;-0.269474564;-0.0628657;0.985482963;0.212628824;-0.078577714;0.124704404;-0.984204291;0.06138;0.235963995;-0.068120041;-0.581144495;-0.159114225;-0.988126619;0.104549634;0.022313771;-0.030894926;-0.776307781;-0.17089216;-0.923985194;-0.016871921;0.322216815;-0.350923047;-0.041562964;0.060000783;walk;11;
33.095;-0.20833772;-0.141441597;1.009561017;0.490135403;-0.425444728;0.100278857;-1.071223285;0.035105058;0.272356931;-0.050454508;-0.722877933;-0.334981757;-1.065644385;0.076523688;0.042857607;0.019706802;-0.807462451;-0.338096651;-1.018610093;0.056447278;0.28983686;-0.317974478;-0.123119196;-0.209970274;walk;11;
33.195;-0.194222007;-0.082756993;1.045969844;1.351900163;-1.711262018;-0.28473188;-1.16767509;-0.019293191;0.133034253;0.736056984;-1.162799476;-0.527062186;-1.16457937;0.039684058;-0.024570796;0.837492764;-0.30333414;-0.328485777;-1.131139252;0.078942755;0.216487027;-0.235743962;0.006182783;-0.210650797;walk;11;
33.295;-0.379047243;-0.342359713;0.731189993;1.429242388;-3.175840322;-0.590854089;-0.948605282;-0.002258519;0.262821433;0.289086197;-1.744676028;-0.294331828;-0.934787568;-0.147083378;-0.171345801;0.388359709;0.87936376;-0.194742535;-0.905154943;-0.039238956;0.109385723;-0.212626964;0.01581724;0.034431047;walk;11;
33.395;-0.822237481;-0.354619228;0.793716119;0.925155035;-3.828277547;-0.29313715;-0.888893403;-0.094053157;0.576389515;-0.482468234;-1.773681325;0.043112598;-1.128699524;-0.131678548;-0.04351503;-0.391145542;1.966391063;-0.293964856;-1.019852565;-0.04175038;0.088964257;-0.197043344;0.062000169;-0.007194157;walk;11;
33.495;-0.710306401;-0.530881729;0.969949787;0.182346013;0.118290707;1.261346758;-0.498021112;-0.116590733;0.714611912;-0.28379029;0.04241186;0.321387135;-1.141580608;-0.138868303;-0.021673794;-0.423206815;2.117978555;-0.091306577;-0.978836396;0.00375462;0.191566983;0.003357138;0.120335118;0.175468207;walk;11;
33.595;-0.262252954;-0.509572111;0.560679273;-1.44760901;3.489937939;1.828694262;-0.418796364;-0.165095942;0.616946584;-0.156338512;2.759829948;0.271536008;-0.938864535;-0.136239454;-0.021101489;-0.313463032;1.508341606;-0.018301706;-0.935355452;-0.095843869;0.226127624;0.044471956;0.018507666;0.156809161;walk;11;
33.695;-0.641382582;-0.752982308;0.735645925;-1.962279526;3.598643507;1.169165862;-0.816076373;-0.131471898;0.473092038;-0.070975725;4.078403162;0.059886228;-0.803736783;-0.068374734;-0.159629453;-0.089895894;0.385929896;-0.028659659;-0.938265278;-0.070234996;0.282133203;0.0560134;0.10050659;0.00381716;walk;11;
33.795;-1.180409631;-0.551718886;0.611538144;-1.627534605;2.322462298;-1.280742828;-1.140077092;-0.086803582;0.321014185;0.496942528;2.42555508;-0.115367536;-0.875628536;-0.10450814;-0.430276612;0.498116217;-0.23954287;0.12461207;-0.933916122;-0.003671911;0.344389797;0.253249286;0.049325169;-0.008652838;walk;11;
33.895;-0.629040012;-0.366202118;0.656400076;0.071080047;-0.207220989;-0.552935975;-1.031523176;-0.083121635;0.185677283;0.484284833;-0.155517058;0.125973815;-0.922744859;-0.138484941;-0.361727294;0.412518541;-0.556001527;0.284552337;-0.945728343;-0.102128149;0.381919268;0.386298179;-0.075771821;0.027640275;walk;11;
33.995;-0.266460469;-0.405186835;1.065527286;-0.140099169;-0.662770605;-0.150145686;-1.092419975;-0.069124622;-0.012874855;-0.055877418;-0.589458977;0.319069727;-1.010608745;-0.109036794;-0.402348141;-0.156364726;-0.683202052;0.284152698;-1.042456849;-0.122348772;0.261791905;0.165219005;-0.180820951;0.195052037;walk;11;
34.095;-0.265751783;-0.204210715;0.942830768;-0.556052342;-0.20273036;-0.301205531;-0.972864281;0.024059299;0.048465354;-0.118960709;-0.642181653;0.312671281;-0.924380084;0.041829359;-0.247988609;-0.211777042;-0.750040945;0.258828847;-0.948143961;-0.016080787;0.174743384;0.092671651;-0.093001103;0.028052469;walk;11;
34.195;-0.267132325;-0.173236438;0.970805946;-0.235927795;-0.076326006;-0.156976395;-0.992029982;0.041638669;0.11225311;0.097098429;-0.654389039;0.222356717;-0.974401456;0.074481672;-0.164867513;0.023311768;-0.658620688;0.241506634;-0.96436558;0.049563642;0.111167102;0.342871477;-0.053700259;-0.055335988;walk;12;
34.295;-0.257691388;-0.192953024;0.960658736;0.055100683;-0.043055622;-0.01669973;-0.982915685;0.057328898;0.228757689;0.225068217;-0.51497823;0.122066292;-1.005563211;0.071199449;-0.072793264;0.176362708;-0.607599025;0.185575118;-1.01176483;-0.095161366;0.158771298;0.274816014;-0.027588788;-0.170768147;walk;12;
34.395;-0.23984331;-0.234101346;0.924937081;-0.251079752;-0.076054492;-0.012127183;-0.965694581;0.056637082;0.238587122;-0.214342696;-0.390418038;0.089858198;-0.970444454;0.029740302;-0.095129235;-0.231678016;-0.721227459;0.026299723;-0.942824343;0.005772406;0.237684396;-0.081109032;0.008282017;-0.123461847;walk;12;
34.495;-0.259125493;-0.136618593;0.963164427;-0.343529732;-0.071154929;0.006968437;-0.979510639;0.055022275;0.187885582;-0.465041703;-0.490667687;0.017254239;-0.970072702;0.075715783;-0.068761384;-0.454144584;-0.762109969;-0.102628156;-0.924096288;0.035170079;0.261324531;-0.325810648;0.10140921;0.193369414;walk;12;
34.595;-0.256089414;-0.126049524;0.977240192;-0.017164308;-0.140800255;0.049922843;-0.991679027;0.063921536;0.315353162;-0.326974295;-0.536363269;-0.128780439;-1.008444071;0.088187868;0.069953912;-0.289232822;-0.88976095;-0.200271887;-0.929014612;0.019590465;0.329330587;-0.425268948;0.053896452;0.223214706;walk;12;
34.695;-0.212838048;-0.073324183;1.061600422;0.445008224;-0.7311133;0.040566212;-1.14268386;0.026902993;0.167779812;-0.15511622;-0.707390899;-0.331132135;-1.125981756;0.113390851;0.006815257;-0.087302114;-0.817941512;-0.355800161;-1.069783864;-0.001849853;0.284289739;-0.322464203;-0.136952703;-0.085388189;walk;12;
34.795;-0.219487985;-0.135803807;0.958482663;1.639744972;-2.031778982;-0.212303561;-1.097592998;0.019726414;0.113820249;0.858799408;-1.341838433;-0.475775647;-1.082635069;0.013757865;-0.092680106;0.948665776;0.035031217;-0.243511164;-1.052039127;-0.027015164;0.184762411;-0.284671267;-0.089280965;-0.180882273;walk;12;
34.895;-0.527846563;-0.369313881;0.763038775;1.513064199;-3.375082881;-0.405522897;-0.969042841;-0.02700825;0.336541485;0.071392956;-1.835664986;-0.183592985;-0.988856871;-0.139368624;-0.134473915;0.150710445;1.253572973;-0.158401974;-0.955994363;-0.050635129;0.059792705;-0.173921264;-0.052278121;-0.054697617;walk;12;
34.995;-0.787793806;-0.49852444;0.911613594;1.072403658;-2.658171037;0.251838092;-0.752672704;-0.107114591;0.650064704;-0.376260571;-1.464195062;0.186846087;-1.137473916;-0.157760634;-0.006552708;-0.397145707;2.054320869;-0.159096236;-1.021142779;-0.088582217;0.101048208;-0.114279289;0.054823102;-0.016006079;walk;12;
35.095;-0.278657566;-0.536619807;0.771343383;-0.83380654;1.354476634;0.867312827;-0.454549306;-0.163253841;0.643629089;-0.233240437;0.919419579;0.351109291;-1.047992805;-0.146952291;-0.032694954;-0.420027075;1.841148198;-0.036349786;-0.934301841;-0.043286214;0.206342288;0.054098368;0.139552444;0.172115091;walk;12;
35.195;-0.278741715;-0.631156553;0.767509238;-1.507623397;3.514250813;1.669106205;-0.587540517;-0.171675685;0.498338542;-0.209657356;3.331286706;0.130146613;-0.869664649;-0.101788262;-0.098413233;-0.223065565;1.116546017;-0.11490509;-0.943469028;-0.088428682;0.260010675;0.12970623;0.082657551;0.008655633;walk;12;
35.295;-0.617528761;-0.742691743;0.955108602;-1.887037832;3.500798581;0.689060196;-0.998517066;-0.133949549;0.312824313;-0.083725598;4.191970739;-0.124815822;-0.810832658;-0.120089645;-0.292873067;0.010134423;0.152687434;-0.148380839;-0.908572627;-0.07406067;0.329555671;0.163043023;0.148353998;-0.10480326;walk;12;
35.395;-1.306586788;-0.430683337;0.446059404;-1.296698859;1.641931846;-1.23713209;-1.134702936;-0.064206592;0.204161742;0.319824097;1.767585181;-0.104138266;-0.849252762;-0.053274669;-0.461813989;0.341849088;-0.126430602;-0.005561562;-0.917844323;-0.020544139;0.335720393;0.359121126;0.098351183;-0.073710678;walk;12;
35.495;-0.477776311;-0.351443028;0.908689845;0.631609546;-1.234022891;-0.271996036;-1.128649418;-0.053861966;0.018184805;0.434213724;-0.950923245;0.176652217;-1.020484364;-0.143690711;-0.455961574;0.360418086;-0.261008319;0.29395394;-1.023751346;-0.131586859;0.362271995;0.362958827;-0.030343226;0.129749329;walk;12;
35.595;-0.388936068;-0.379409772;1.006956617;-0.085577909;-0.435167647;-0.196817044;-0.980216997;-0.035128504;0.198934136;0.184848958;-0.992444179;0.33729706;-0.979894668;-0.034539515;-0.187295367;0.048204009;-0.579375117;0.3817102;-1.041537303;-0.13382455;0.267592039;0.036577928;-0.058917387;0.115024539;walk;12;
35.695;-0.240065618;-0.259832487;0.944318067;-0.234486113;-0.069573647;-0.160040494;-0.979240388;0.014409326;0.092587414;0.172871911;-0.699043752;0.297194582;-0.943724403;0.042730149;-0.232089807;0.051624088;-0.871866917;0.33954656;-0.925818407;0.054384913;0.102041939;0.119321273;-0.078109613;-0.032711807;walk;12;
35.795;-0.232455511;-0.307207381;0.92942589;-0.047935211;-0.024510143;-0.049340781;-0.978822104;0.034988332;0.241784234;0.217240914;-0.579805971;0.197365996;-0.996594791;0.039704544;-0.120977061;0.132457569;-0.726491568;0.262178691;-1.010015449;0.003715209;0.115041121;0.384685528;-0.079618818;-0.106637885;walk;12;
35.895;-0.234162799;-0.275857231;0.928670213;-0.374133359;-0.108563301;-0.081903542;-0.980733546;0.053083339;0.225235138;-0.242501293;-0.368958428;0.145466521;-0.983456539;0.046390768;-0.124376217;-0.277427324;-0.807017298;0.059677673;-0.953157155;-0.042692477;0.223292775;0.076091453;-0.022993442;-0.151870256;walk;12;
35.995;-0.262677654;-0.196564151;0.950398654;-0.147912672;-0.066028332;0.057644818;-0.974266361;0.055509629;0.168929176;-0.201597466;-0.470064033;0.040366197;-0.961617929;0.086640758;-0.109203161;-0.204697932;-0.732943769;-0.020690847;-0.936243076;0.02515901;0.225072977;-0.144042055;0.000891023;-0.065312443;walk;12;
36.095;-0.241399761;-0.238515063;0.93831375;-0.038910259;-0.059058069;0.083471056;-0.960510665;4.55E-02;0.29901732;-0.242146863;-0.541569502;-0.060115701;-0.980288218;0.047659949;0.005418534;-0.217326616;-0.799141934;-0.122626305;-0.907983138;0.048538089;0.295149749;-0.394474076;0.083094559;0.194987936;walk;12;
36.195;-0.199649829;-0.239897874;0.99309008;-0.008678989;-0.28038458;0.012709903;-1.060609368;0.032459115;0.297321876;-0.547059521;-0.552182681;-0.234028203;-1.056072949;0.064028653;0.023793365;-0.478060597;-0.970974723;-0.35514352;-0.968595185;0.068397007;0.340778883;-0.39336283;-0.051232179;0.101761446;walk;13;
36.295;-0.148876078;-0.104886087;1.087193697;0.947800991;-1.544686143;-0.230632015;-1.242341889;-0.02224437;0.047124297;0.129407829;-1.02283193;-0.485760267;-1.207374642;0.056603958;-0.117186896;0.235532701;-0.438134921;-0.437102423;-1.176841094;-0.023999055;0.236070051;-0.291620399;-0.032878544;-0.056702253;walk;13;
36.395;-0.370465396;-0.309903652;0.805584135;1.44676263;-3.186018507;-0.593827242;-0.998149092;-0.048992777;0.208696907;0.285781764;-1.691783914;-0.357981532;-0.989218458;-0.146464543;-0.157645254;0.399904473;0.918562427;-0.241983741;-0.942998127;-0.08921135;0.120412704;-0.399972305;-0.044003743;0.118183207;walk;13;
36.495;-0.785644911;-0.42093924;0.87736754;1.070386182;-2.853456117;0.073296678;-0.791518349;-0.090401949;0.551860597;-0.250150883;-1.694405924;-0.015715176;-1.038365266;-0.151116482;-0.006888601;-0.182130398;1.836777389;-0.184940768;-0.959526953;-0.137290414;0.089151771;-0.250325985;0.033051667;0.037020966;walk;13;
36.595;-0.362317737;-0.432660981;0.814679572;0.060686493;0.226627997;0.84081997;-0.528997071;-0.15085901;0.654813679;-0.169336294;0.154603275;0.243334577;-1.083462234;-0.16874198;-0.018214359;-0.299011697;1.802230009;-0.009487682;-0.95897164;-0.062341799;0.204319335;-0.060083134;0.078053208;0.120190824;walk;13;
36.695;-0.28396866;-0.582725331;0.712316984;-1.19406329;2.666485961;1.222323458;-0.523480278;-0.191409147;0.561568152;-0.172391528;2.466625095;0.252092176;-0.914993844;-0.167302864;-0.078226908;-0.306145173;1.300365665;-0.015415725;-0.935887889;-0.095610869;0.232836418;0.054353298;0.002611955;0.039955104;walk;13;
36.795;-0.474325286;-0.690348699;0.862733605;-1.541606563;3.253845423;1.265046899;-0.843167122;-0.15226048;0.391621434;-0.183938776;3.768365329;0.099950123;-0.820770352;-0.140027797;-0.211873331;-0.202375296;0.398392652;-0.05792034;-0.929543803;-0.10598185;0.297779683;0.20416949;0.073528298;-0.165058867;walk;13;
36.895;-0.92481927;-0.619413946;0.702993876;-1.91821245;2.299923133;-0.62622957;-1.127008372;-0.144582555;0.162926553;-0.115755358;2.786136976;0.06969415;-0.848565021;-0.103530277;-0.443424551;-0.130933663;-0.06034251;0.000859129;-0.913449509;-0.042957988;0.326028507;0.284151651;0.057768994;-0.156107902;walk;13;
36.995;-0.814501402;-0.331308593;0.542148188;0.159156847;-0.211379198;-0.818814243;-1.072116024;-0.09321956;0.090343624;0.68743234;-0.152506983;0.042543881;-0.90143139;-0.116095264;-0.441595523;0.645189216;-0.177479264;0.24011548;-0.945214827;-0.06215291;0.359298184;0.459634662;0.028268722;-0.013755746;walk;13;
37.095;-0.39882442;-0.44783101;1.109269855;0.390790268;-0.853901588;-0.118556051;-1.086178732;-0.071471647;0.101164519;0.367877623;-1.087431321;0.323919303;-1.047622438;-0.124962915;-0.32886599;0.231550547;-0.326738258;0.428889284;-1.095561841;-0.179438956;0.310292049;0.326617707;-0.026016424;0.216412357;walk;13;
37.195;-0.252057746;-0.345691372;0.907733637;-0.426839764;-0.116365527;-0.214922251;-0.95293294;-0.023409311;0.184920027;0.074280263;-0.718575984;0.394222622;-0.941959246;-0.029216295;-0.198312973;-0.079276141;-0.914882973;0.39376719;-0.943216601;-0.105815074;0.234747859;0.123106919;-0.08626806;0.026893316;walk;13;
37.295;-0.247015127;-0.245859738;0.946753666;-0.286780201;-0.079909489;-0.135064177;-0.987671471;0.042351659;0.113008056;0.114571509;-0.655828973;0.311010346;-0.955142412;0.077115769;-0.20382655;-0.002092395;-0.816662516;0.331111152;-0.945711386;0.056186352;0.08805199;0.200434195;-0.093449232;-0.042314726;walk;13;
37.395;-0.239934571;-0.25626662;0.947869629;-0.127913668;-0.079833659;-0.053764804;-0.98424431;0.065427824;0.243785427;0.090522932;-0.562397405;0.183532607;-1.003259762;0.081281025;-0.093742435;0.022301239;-0.692269439;0.203507228;-1.005219538;-0.082152498;0.151178443;0.234563975;-0.041075535;-0.237546196;walk;13;
37.495;-0.247959394;-0.243058255;0.935409442;-0.166219923;-0.125411802;-0.014357974;-0.969231877;0.070138884;0.253144123;-0.127180448;-0.444635872;0.097478885;-0.983754891;0.075132653;-0.081481411;-0.152113191;-0.710618151;0.051723981;-0.955640958;0.042946033;0.208331643;0.009527608;-0.04380814;-0.225788551;walk;13;
37.595;-0.25974123;-0.222075325;0.931988643;-0.187278798;-0.135637346;0.003010013;-0.958107099;0.067654304;0.272809734;-0.278158714;-0.451004826;0.028593343;-0.975124843;0.06431108;-0.039972178;-0.274545358;-0.758613572;-0.053992375;-0.947557522;0.062999598;0.218247101;-0.142338123;0.048316829;0.009280481;walk;13;
37.695;-0.259919196;-0.196546364;0.958076103;-0.214591797;-0.256089482;-0.038747829;-0.986634339;0.06133151;0.321500608;-0.496644581;-0.482460651;-0.064483163;-1.012246225;0.077368564;0.04628681;-0.46249381;-0.813535481;-0.193085647;-0.913655439;0.042135603;0.311180566;-0.274311328;0.019978776;0.223616211;walk;13;
37.795;-0.245375083;-0.182311327;0.999200979;0.062936887;-0.678361304;-0.18542045;-1.074436702;0.035395194;0.320028917;-0.459662288;-0.502595205;-0.286171191;-1.08288446;0.090889936;0.077465678;-0.383047039;-0.892208023;-0.384233458;-1.033039523;0.029798628;0.317424171;-0.163095435;-0.161403662;-0.028145968;walk;13;
37.895;-0.295068718;-0.068341977;0.996704284;0.871871027;-1.707657124;-0.38703312;-1.134099899;-0.019382695;0.075632071;0.207477917;-0.882795572;-0.555441698;-1.112002569;0.058930228;-0.057080668;0.321833149;-0.457864133;-0.492820189;-1.07261541;-0.022130752;0.220249407;-0.326565069;-0.116749611;-0.148288932;walk;13;
37.995;-0.464019259;-0.220239341;0.827463862;1.77605608;-3.116097142;-0.262828695;-1.045913862;0.027117657;0.108575993;0.610808748;-1.746554457;-0.369062518;-0.989481563;-0.095618674;-0.255415159;0.70013118;0.995358414;-0.149491616;-0.9856716;-0.065896075;0.045301923;-0.35098903;0.015203764;0.082915071;walk;13;
38.095;-0.792867282;-0.453495849;0.938585644;1.569846271;-3.263329924;0.210293489;-0.870507607;-0.08517135;0.559948819;-0.12389144;-1.840859561;0.043360097;-1.127968;-0.15250268;-0.039380734;-0.125468268;2.29580945;-0.062959688;-0.970804482;-0.075619344;0.061231418;-0.069633586;0.080607022;-0.022471716;walk;13;
38.195;-0.415165061;-0.530826701;0.933696109;-0.326919184;1.061623378;1.324551613;-0.4458514;-0.121030337;0.712483867;-0.164106396;0.5807437;0.380935833;-1.155072958;-0.153437932;0.015502922;-0.414397585;2.292320578;0.040396457;-0.992395132;-0.054901745;0.183106663;0.058980056;0.131423743;0.14602148;walk;14;
38.295;-0.275237946;-0.597704761;0.60001418;-1.953021367;3.635607905;1.927925814;-0.440976105;-0.130634991;0.586631541;-0.106478082;3.520912813;0.371770123;-0.88092519;-0.078998077;0.047135029;-0.374245126;1.317976367;0.093113335;-0.915217246;-0.114556415;0.22810295;0.12018301;0.081120545;0.109674197;walk;14;
38.395;-0.880330192;-0.798912683;0.768275618;-2.516499887;3.759150985;-0.245354534;-0.958375197;-0.13824022;0.462035091;0.307071039;4.153823416;-0.105426884;-0.808123549;-0.074170495;-0.177638511;0.304432758;0.029933138;0.090272444;-0.9516135;-0.09449931;0.280043952;0.162079361;0.134296605;-0.182215978;walk;14;
38.495;-1.249601921;-0.466485025;0.448716805;-1.124539152;1.292307267;-1.196041271;-1.164354472;-0.053893925;0.28280455;0.332239876;1.409559203;-0.044944917;-0.90870243;-0.109101609;-0.466629528;0.329723486;-0.440564165;0.077080014;-0.936426166;-0.048957265;0.335994425;0.36152291;0.099084955;-0.183040133;walk;14;
38.595;-0.312242886;-0.351628952;1.015895805;0.315008897;-1.08306426;-0.338656687;-1.111211135;-0.086003184;-0.016078245;0.253393271;-0.670208949;0.189052765;-1.030999763;-0.135245687;-0.411433218;0.185047472;-0.48188593;0.255467416;-1.013297664;-0.083293499;0.355040829;0.354641305;-0.083057869;0.037568728;walk;14;
38.695;-0.347238145;-0.292818037;0.96400746;-0.582318777;-0.318339445;-0.28092705;-0.986693408;-0.00722219;0.109920486;-0.228119998;-0.622384158;0.304467819;-0.953012188;-0.029066317;-0.230833435;-0.310580991;-0.735829321;0.220058886;-0.956733745;-0.10548666;0.259380419;0.212709594;-0.206779244;0.092781134;walk;14;
38.795;-0.254362091;-0.134348539;0.965533856;-0.674783399;-0.11403689;-0.290043714;-0.997999703;0.032976708;0.014659904;-0.274897109;-0.591747331;0.254437697;-0.947767707;0.057131616;-0.241023974;-0.336264835;-0.78393084;0.164968655;-0.986015674;-0.026924157;0.092884705;0.090240782;-0.117927834;0.016409419;walk;14;
38.895;-0.276627957;-0.04653277;0.985074836;-0.089281203;-0.051144685;-0.066690409;-0.986738381;0.080654036;0.111810507;0.115883472;-0.626180907;0.134988327;-0.9824385;0.122076852;-0.120155941;0.073002375;-0.559118574;0.162533359;-0.988089707;0.036808956;0.104230569;0.198952874;-0.004975921;-0.100636823;walk;14;
38.995;-0.260301343;-0.140031166;0.956217534;0.210846052;-0.028381218;0.060173259;-0.980633365;0.062381099;0.222490203;0.274170153;-0.455963262;0.04637711;-1.001518638;0.071289394;-0.057019082;0.249910452;-0.579654816;0.121823695;-0.981736541;-0.03020798;0.173871556;0.203837277;-0.005580119;-0.203573076;walk;14;
39.095;-0.259798544;-0.157975694;0.948050432;0.022399453;-0.054308819;0.039603423;-0.972406266;0.062205146;0.218674018;-0.003859356;-0.386344173;0.008651058;-0.985091534;0.054241047;-0.062518125;-0.006152996;-0.576320398;0.007683541;-0.973282734;-0.014606369;0.191078825;-0.02037687;-0.027482656;-0.192145917;walk;14;
39.195;-0.259472526;-0.163022352;0.945698853;-0.203208011;-0.067076037;0.023910014;-0.968716163;0.051408655;0.257964973;-0.34768261;-0.380766985;-0.024826782;-0.98379005;0.039358911;-0.015370602;-0.331372939;-0.633283165;-0.108234047;-0.949728448;0.069177352;0.228420886;-0.2672302;0.077790918;0.029831477;walk;14;
39.295;-0.282558025;-0.083686964;0.973592558;-0.042332033;-0.096116808;0.069466353;-0.981756049;0.065205005;0.239852164;-0.315768074;-0.403241269;-0.108912288;-0.992408326;0.093901674;0.034310415;-0.285287463;-0.721207048;-0.174697835;-0.910050083;0.028740096;0.288209882;-0.40968634;0.073110837;0.274091187;walk;14;
39.395;-0.225017069;-0.101190125;1.027142258;0.365694441;-0.441641399;0.210908518;-1.088406586;0.036630101;0.236962915;-0.211437618;-0.565087099;-0.254374351;-1.088956484;0.081428058;0.039211721;-0.158533595;-0.658907811;-0.290572369;-1.067699259;0.032721146;0.268244838;-0.358579839;-0.060390545;0.020669844;walk;14;
39.495;-0.25975923;-0.114676355;0.999809844;1.176009799;-1.388976767;-0.067578497;-1.098191661;-0.020403012;0.095643888;0.545177646;-1.012563983;-0.421523188;-1.082932407;0.033933016;-0.055325945;0.623473577;-0.102829117;-0.283290449;-1.030200926;-0.022827995;0.205370622;-0.394245712;-0.055422478;-0.005447857;walk;14;
39.595;-0.307411045;-0.328335726;0.798710607;1.467052231;-2.555647265;-0.370453208;-0.993885795;-0.016772957;0.249054841;0.446117293;-1.653679498;-0.273523346;-0.975853839;-0.121712604;-0.176124827;0.521490283;0.977808004;-0.106614955;-0.96689287;-0.056990425;0.095660146;-0.278859583;0.038490716;0.072424321;walk;14;
39.695;-0.727939182;-0.404180396;0.761678872;0.687950632;-3.714427815;-0.620923562;-0.94374146;-0.117702264;0.569476374;-0.505867279;-1.747787661;0.029341814;-1.123300561;-0.17194118;-0.115805155;-0.395541174;1.931790758;-0.326968477;-0.98367397;-0.04215931;0.136381668;-0.147010592;0.057571469;-0.052642378;walk;14;
39.795;-0.740785779;-0.461388405;1.020365215;0.022490737;-0.663365066;0.893161803;-0.528165731;-0.115114403;0.684373144;-0.538996521;-0.202532148;0.394299725;-1.116805715;-0.151237772;-0.074305125;-0.614603032;2.00343095;-0.274430229;-0.99318561;-0.023805758;0.22187003;-0.028497608;0.112295274;0.138747647;walk;14;
39.895;-0.214573366;-0.425672152;0.672909507;-1.116142568;3.333354144;2.016706158;-0.398154519;-0.112641478;0.529031438;-0.235240758;2.632629603;0.343864987;-0.902066382;-0.063281289;-0.028365212;-0.411206342;1.229125837;-0.057284898;-0.910575775;-0.086588717;0.26250722;0.063459095;0.034327967;0.168259777;walk;14;
39.995;-0.647674394;-0.693799625;0.771713659;-1.861161762;3.747816739;1.22095035;-0.854417053;-0.112954779;0.414110308;0.015562574;4.066657013;0.095546996;-0.794825506;-0.08393903;-0.205643903;-0.055984826;0.127499511;0.067933008;-0.938569267;-0.114289202;0.267278255;0.112265594;0.066128478;0.003733444;walk;14;
40.095;-1.145773203;-0.559533692;0.554833865;-1.756586609;2.17474196;-1.278470584;-1.145675014;-1.01E-01;0.255857011;0.37211489;2.295392792;0.010745378;-0.856262718;-0.092618426;-0.460300803;0.33472601;-0.337338858;0.160612502;-0.916386707;-0.066569842;0.343987129;0.16862702;0.107950916;0.011662764;walk;14;
40.195;-0.589192616;-0.352776313;0.778783227;0.408155119;-0.61927537;-0.324276254;-1.121019258;-0.065176952;0.05456241;0.466897011;-0.482908857;0.123995107;-0.979050764;-0.105904064;-0.46136734;0.40120442;-0.380962711;0.268416355;-0.993406484;-0.091397794;0.348372339;0.266992234;-0.032294218;0.051631622;walk;15;
40.295;-0.365051405;-0.407129027;1.02172741;0.315887826;-0.466682007;-0.067869525;-1.016204417;-0.041108638;0.135980511;0.395180197;-0.829003905;0.285144224;-0.992363743;-0.057840923;-0.262723287;0.266544206;-0.563277185;0.407646199;-1.031753248;-0.152821503;0.306925256;0.182467492;-0.041718181;0.090074968;walk;15;
40.395;-0.219596977;-0.371574437;0.89260435;-0.411739802;-0.060450369;-0.17070071;-0.969570804;-0.008255725;0.150504048;0.024191651;-0.628011223;0.322766615;-0.944441167;-0.026664968;-0.217116786;-0.091508695;-0.909852258;0.311857437;-0.923914922;-0.081314825;0.17176959;0.173622174;-0.112861066;-0.108105286;walk;15;
40.495;-0.247493381;-0.251424416;0.938140617;-0.561928883;-0.091579725;-0.190041855;-0.980980808;0.051082271;0.183151471;-0.177644408;-0.566396566;0.284876559;-0.981462582;0.060125498;-0.129606133;-0.262100946;-0.715053317;0.209982548;-0.9766215;0.011831477;0.079012043;0.14335059;-0.094690925;-0.128775778;walk;15;
40.595;-0.247267719;-0.204756522;0.955717023;-0.455413092;-0.102899236;-0.1195144;-0.988450783;0.073533773;0.254193068;-0.268841705;-0.40329145;0.176350282;-1.010500335;0.089335037;-0.05778417;-0.310842557;-0.715800162;0.083546671;-1.011221775;-0.032931114;0.173351372;0.149406193;-0.045363205;-0.185157498;walk;15;
40.695;-0.270095304;-0.143584004;0.948948007;-0.404826386;-0.150556824;-0.074181596;-0.973622762;0.086532577;0.213625406;-0.419967278;-0.33722542;0.074150644;-0.978841346;0.094377397;-0.062912229;-0.424450252;-0.72393973;-0.044309696;-0.946588329;0.027489706;0.203101025;-0.109494243;-0.019109654;-0.169289269;walk;15;
40.795;-0.274062032;-0.117362187;0.960333689;-0.216356152;-0.182166113;0.013135618;-0.984849315;0.064570329;0.236820496;-0.383464906;-0.43988482;-0.005619844;-0.990494133;0.070693355;-0.023254234;-0.370734684;-0.741112662;-0.098726928;-0.96743379;0.096078632;0.230971141;-0.243653781;0.135783552;0.128783212;walk;15;
40.895;-0.280831562;-0.109169114;0.984295448;-0.035228;-0.430467469;0.001769591;-1.01895211;0.03937976;0.222909083;-0.365116824;-0.595692505;-0.113398597;-1.015844486;0.079699039;0.009366527;-0.331625594;-0.721515376;-0.190731186;-0.917218455;-0.001662091;0.330281497;-0.31824419;0.166049653;0.35397834;walk;15;
40.995;-0.29494011;-0.085250221;1.001399807;0.606438535;-0.899107847;-0.054180089;-1.065373943;0.047269304;0.27308803;0.138476552;-0.864053926;-0.342112669;-1.06908374;0.123928008;0.060159422;0.213626275;-0.543140369;-0.299513271;-1.02748834;-0.005696864;0.341730154;-0.317086733;-0.055053516;0.017064322;walk;15;
41.095;-0.293646849;-0.139762676;0.920196192;1.178873007;-2.034149689;-0.391908077;-1.079179194;0.033548574;0.194038975;0.483721954;-1.233720822;-0.520881323;-1.066995344;0.024840088;-0.086127698;0.613228727;-0.135912919;-0.359359715;-1.005525973;-0.009506837;0.272862802;-0.280861774;-0.060715126;-0.236729083;walk;15;
41.195;-0.609539213;-0.24031383;0.815143832;1.137736402;-3.702520685;-0.116881591;-1.049434256;-0.021595291;0.264458487;-0.193895591;-1.837389301;-0.171785514;-1.032093171;-0.152310767;-0.22549927;-0.089674624;1.242375289;-0.271002504;-0.978466928;-0.07303175;0.081923844;-0.35176509;-0.067066455;-0.058462172;walk;15;
41.295;-0.878963586;-0.411098985;1.041313149;1.149987326;-2.517218899;0.932716366;-0.740806661;-0.091218274;0.63587665;-0.377455409;-1.382990069;0.27205714;-1.161188495;-0.132363662;-0.010129236;-0.464593131;2.276888504;-0.109508314;-1.012856972;-0.043353073;0.107537836;-0.112687596;0.065249322;0.008175288;walk;15;
41.395;-0.275379621;-0.489697092;0.656564644;-0.965470587;2.187846619;1.245957351;-0.358261959;-0.156638686;0.697667549;-0.082713527;1.283402123;0.36606413;-1.065189941;-0.127708793;0.053472165;-0.364127446;1.90847454;0.094477881;-0.943027388;-0.078165776;0.239621915;-0.000927658;0.042184241;0.123427395;walk;15;
41.495;-0.410334189;-0.589789136;0.672733719;-1.525563286;3.804101279;1.467799915;-0.577649893;-0.140841467;0.550938028;0.1259655;3.588802532;0.089554286;-0.856193245;-0.094949826;-0.043404272;-0.005240995;0.891922923;0.146547171;-0.922528111;-0.069362725;0.230749864;0.129890363;-0.016130426;0.047863416;walk;15;
41.595;-0.832922536;-0.674116856;0.824493666;-1.951603322;3.308621068;-0.298019647;-1.036540207;-0.11750271;0.371543172;0.330195881;3.709908329;-0.122296833;-0.832902477;-0.094648537;-0.295253708;0.339254833;0.044516594;0.087519533;-0.93575147;-0.06870948;0.298657975;0.174256238;0.039875463;-0.07057993;walk;15;
41.695;-1.169532572;-0.412792008;0.459568104;-0.626111599;0.882081279;-0.993582726;-1.113375461;-0.033377688;0.272989409;0.479268948;1.079708634;-0.022839366;-0.887628367;-0.092328162;-0.445603923;0.458406119;-0.308586795;0.151152197;-0.928030183;0.005418393;0.344001524;0.337476539;-0.00427754;0.011949273;walk;15;
41.795;-0.454621568;-0.392081153;1.031635582;0.354493853;-0.900385777;-0.222710307;-1.112879824;-0.045023623;0.052313213;0.315421238;-0.958441376;0.235470412;-1.02620634;-0.078731394;-0.39460039;0.215331258;-0.346312008;0.3277546;-1.063056899;-0.179471359;0.302936594;0.289876457;-0.060997089;0.185947541;walk;15;
41.895;-0.291595511;-0.350758135;0.921863953;-0.34120212;-0.145481312;-0.216506853;-0.950948966;-0.006344552;0.248965527;0.042199798;-0.722664816;0.280946905;-0.964903034;-0.020682076;-0.155977195;-0.067130218;-0.796376893;0.276530282;-1.001493083;-0.06206043;0.192068669;0.202474482;-0.137836868;-0.135568805;walk;15;
41.995;-0.248550318;-0.183063476;0.954966687;-0.505553454;-0.063336441;-0.202164741;-0.985247768;0.046442968;0.120980667;-0.161559966;-0.528867992;0.225522395;-0.965563352;0.069092348;-0.188244362;-0.230343019;-0.838890291;0.15394197;-0.936925461;0.034715033;0.084868443;0.136596891;-0.097394908;-0.107759772;walk;15;
42.095;-0.252966255;-0.191275135;0.961341291;-0.119056578;-0.050530984;-0.039210759;-0.991594711;0.056731352;0.200531017;0.050348825;-0.450524445;0.138827252;-0.995182407;0.073330731;-0.122323278;0.002425801;-0.765739104;0.147609277;-1.007215524;-0.012664889;0.151396176;0.245215253;-0.043906984;-0.157885388;walk;15;
42.195;-0.24128785;-0.210331429;0.933969498;-0.302513351;-0.089825572;-0.040455716;-0.971127772;0.052841068;0.231517413;-0.268169173;-0.382902131;0.085053116;-0.9784108;0.034405018;-0.085633631;-0.281817667;-0.782716637;0.005426716;-0.950085344;0.009219861;0.195333308;0.033824737;-0.015088192;-0.193152837;walk;16;
42.295;-0.265910435;-0.130451115;0.964568666;-0.332995194;-0.120108369;-0.023773146;-0.984237398;0.053060672;0.204219041;-0.449745035;-0.456521304;0.013971876;-0.979527339;0.071759686;-0.051329782;-0.439008322;-0.809281662;-0.100075634;-0.945664592;0.078399806;0.230036546;-0.215183125;0.114300478;0.112841312;walk;16;
42.395;-0.2651675;-0.117811285;0.97600458;-0.061099127;-0.254941383;0.010428061;-1.000011892;0.050893455;0.27253093;-0.371528796;-0.543326541;-0.122878059;-1.005860007;0.079808245;0.045330076;-0.336093917;-0.878771537;-0.201340082;-0.9394301;0.076559276;0.278732136;-0.25446908;0.164275442;0.295477592;walk;16;
42.495;-0.253284872;-0.064222417;1.034399622;0.460624437;-0.681478762;0.02397935;-1.094044646;0.044751661;0.21066454;-0.079546758;-0.767375966;-0.344779656;-1.082991057;0.122543849;0.037217907;-0.009772997;-0.753381011;-0.353578798;-1.016967324;-0.0143588;0.334196954;-0.286373613;0.015123329;0.0054206;walk;16;
42.595;-0.230878173;-0.120999899;0.980600623;1.424294828;-1.984187214;-0.196435884;-1.131445702;-0.005757709;0.1463958;0.667148045;-1.237226407;-0.511338276;-1.123036121;0.014076478;-0.052154204;0.769919079;-0.174908563;-0.329426685;-1.084317634;0.007095512;0.241457355;-0.268577919;-0.003831136;-0.199911849;walk;16;
42.695;-0.492741185;-0.328828105;0.723298438;1.504463626;-3.404510528;-0.388592602;-0.952725435;-0.028904654;0.283931513;0.188279809;-1.775564855;-0.270348902;-0.95720767;-0.144066667;-0.138691949;0.288266777;1.059317149;-0.194878094;-0.930745493;-0.046720255;0.088335478;-0.21285422;-0.003373824;-0.035413094;walk;16;
42.795;-0.874886323;-0.427234084;0.822248783;1.392942714;-3.582635846;0.030103756;-0.838441965;-0.092918353;0.599451957;-0.324481396;-1.602202103;0.037979384;-1.131790802;-0.14246831;-0.037474325;-0.262269267;2.076229928;-0.206830177;-0.99051862;-0.064841977;0.112957709;-0.089120928;0.039721152;-0.028525925;walk;16;
42.895;-0.60934552;-0.594742129;0.880872078;-0.335569398;1.28023429;1.620089274;-0.447702909;-0.128457941;0.704218653;-0.216349638;0.554562213;0.36633747;-1.121874771;-0.146148633;-0.001105982;-0.428523777;2.043991582;-0.012891231;-0.98746075;-0.017952568;0.22971538;0.071391843;0.076282588;0.153794756;walk;16;
42.995;-0.265366441;-0.520879999;0.554191919;-1.87480123;3.820121501;1.713942616;-0.485624784;-0.140465967;0.573374995;0.018060859;3.172588479;0.219292681;-0.897801344;-0.09780023;-0.016007855;-0.180061221;1.230669083;0.121224346;-0.91366381;-0.093856372;0.247364401;0.207294616;0.001330658;0.129991534;walk;16;
43.095;-0.687582574;-0.75518383;0.793004802;-2.193090027;3.524180226;0.464019206;-0.924387162;-0.122085178;0.434752099;0.154107866;4.05928922;-0.007811472;-0.817750595;-0.094506048;-0.201073499;0.119917677;0.174489516;0.087935599;-0.947849921;-0.090626716;0.274866979;0.197270631;0.073884439;-0.047141162;walk;16;
43.195;-1.180943544;-0.546371569;0.508144744;-1.690271791;1.622991789;-1.435547296;-1.116237734;-0.072648719;0.308876094;0.197859492;1.984221158;0.011143533;-0.869402732;-0.112671611;-0.415566101;0.179900732;-0.276741278;0.090453388;-0.89607587;-0.086544333;0.352669932;0.225113334;0.016425554;-0.042476115;walk;16;
43.295;-0.575212323;-0.307178998;0.853143755;0.244250607;-0.885719993;-0.16375244;-1.128642394;-0.068073338;0.03353841;0.137870488;-0.539511267;0.174354181;-1.012797467;-0.087435939;-0.408768599;0.080010104;-0.433111237;0.207462161;-1.012931368;-0.081828785;0.318143785;0.167321225;-0.118513466;0.080436939;walk;16;
43.395;-0.372164782;-0.307317654;1.033854435;-0.005161559;-0.344737464;-0.199724184;-1.011411916;-0.005917566;0.097354186;0.266054455;-0.834706072;0.27874509;-0.981824581;-0.013299868;-0.251639578;0.160292525;-0.560718612;0.350326444;-1.044540694;-0.12567779;0.238412229;0.059659654;-0.115274774;0.127500866;walk;16;
43.495;-0.235218966;-0.261096248;0.926995051;-0.298358989;-0.067727183;-0.131886971;-0.972588721;0.013967945;0.102000483;0.05198776;-0.647301481;0.268500017;-0.944018211;0.018085946;-0.213108137;-0.039019129;-0.783019858;0.270903775;-0.95715736;0.009706841;0.099906467;0.183671041;-0.052108823;-0.098640641;walk;16;
43.595;-0.257374064;-0.19327804;0.950624259;-0.21415203;-0.037693676;-0.101293137;-0.978927187;0.05853794;0.170595429;0.078838601;-0.546986613;0.210273214;-0.985332537;0.073214232;-0.122005227;0.00785663;-0.635559098;0.224403418;-0.985700301;0.015801393;0.085512295;0.341977983;-0.007532971;-0.11283051;walk;16;
43.695;-0.246839048;-0.208046734;0.951603435;-0.141724637;-0.052525555;-0.069853738;-0.985020428;0.069355392;0.237575615;0.053131984;-0.369903608;0.147715823;-1.009112191;0.071209639;-0.069090593;0.00563193;-0.625845707;0.157221698;-0.99054173;-0.062663041;0.178320329;0.275048051;0.034165064;-0.174981328;walk;16;
43.795;-0.253020185;-0.205400023;0.941914636;-0.478978964;-0.094183939;-0.094678637;-0.981139819;0.064148027;0.21148265;-0.423130964;-0.279503404;0.100889385;-0.986341533;0.057240442;-0.07856616;-0.435051914;-0.591181806;-0.017466901;-0.950222121;0.004148363;0.199421816;0.025297514;-0.056275195;-0.146162505;walk;16;
43.895;-0.274247548;-0.085955797;0.957203425;-0.271928559;-0.068894711;0.004069785;-0.967990314;0.089506982;0.214232284;-0.374362781;-0.331180451;0.006961676;-0.978779122;0.103694706;-0.03099739;-0.364380212;-0.549789254;-0.086634331;-0.972814996;0.034953004;0.218025324;-0.24346247;0.06159076;0.082694652;walk;16;
43.995;-0.276295602;-0.082620622;0.970387531;-0.175051328;-0.08705087;0.016175088;-0.984597878;0.064987634;0.223784709;-0.3885187;-0.39139453;-0.069469748;-0.990091061;0.087450929;-0.001840757;-0.363164539;-0.639672641;-0.155265307;-0.920105233;0.033860761;0.294222012;-0.348266881;0.120483479;0.243074612;walk;16;
44.095;-0.263484678;-0.085537784;0.99137219;0.231790592;-0.253071534;0.07623859;-1.016401929;5.23E-02;0.269046179;-0.130196412;-0.543997746;-0.208774837;-1.025567288;0.092709978;0.05699174;-0.083778625;-0.622990558;-0.231500605;-0.955326129;0.037949068;0.323305435;-0.294115092;-0.014085769;0.182634106;walk;16;
44.195;-0.245256444;-0.103516561;1.017498254;0.646480528;-0.92274002;-0.079360074;-1.096786131;0.019292033;0.247090117;0.120733001;-0.70989066;-0.402215775;-1.098901019;0.078664707;0.047183633;0.202169065;-0.565647934;-0.3675364;-1.065786137;-0.016956025;0.304649281;-0.188049384;-0.100650353;-0.119005349;walk;17;
44.295;-0.300560066;-0.112126538;0.931911578;1.445461395;-1.950002473;-0.17213617;-1.062035056;0.025007003;0.113821771;0.677179093;-1.220142465;-0.465372427;-1.043267731;0.007278015;-0.114912338;0.774401058;0.082066526;-0.264536124;-1.013179649;-0.059294823;0.186862286;-0.336285355;-0.063153334;-0.099775329;walk;17;
44.395;-0.51629484;-0.345528173;0.771577993;1.334537098;-3.442069947;-0.371653145;-1.020313554;-0.037391688;0.305439712;0.012483028;-1.886093703;-0.175156834;-1.007761821;-0.14564561;-0.208053878;0.100559753;1.455340704;-0.179923851;-0.952546262;-0.05958187;0.086330943;-0.259496173;0.03124034;-0.046886996;walk;17;
44.495;-0.864514198;-0.456935997;0.960196171;0.925734537;-2.815415575;0.328870468;-0.738767609;-0.101461467;0.683645123;-0.465893063;-1.3546117;0.212206718;-1.170437092;-0.155953326;-0.027110768;-0.466598949;2.189301252;-0.230485351;-0.997394553;-0.003022421;0.164314306;-0.097951282;0.08802161;-0.04506244;walk;17;
44.595;-0.326066348;-0.505161655;0.765535359;-0.816490944;1.990043483;1.336871287;-0.410922781;-0.144354204;0.637605612;-0.220248638;1.229292242;0.335281522;-1.039630414;-0.104381622;-0.018066554;-0.399797867;1.79448416;-0.042424108;-0.964910619;-0.039166296;0.234561151;0.13022971;0.114500563;0.176963014;walk;17;
44.695;-0.398655049;-0.586862561;0.658394632;-1.200761273;3.62773801;1.996591175;-0.603407024;-0.135562011;0.525839219;-0.01660362;3.478026252;0.05500464;-0.848219979;-0.095762488;-0.096573776;-0.055758805;0.863316617;0.01106792;-0.924240301;-0.117742787;0.272783358;0.182234177;0.097517497;0.006923498;walk;17;
44.795;-0.691582074;-0.696288427;0.893842413;-2.175655564;3.191622216;0.044898545;-1.015379176;-0.090488749;0.328181558;0.066670735;3.773823048;-0.033896927;-0.844162497;-0.109079264;-0.310420977;0.074877737;0.04200143;0.015599519;-0.919726534;-0.060205967;0.302858141;0.244078722;0.106925385;-0.121164509;walk;17;
44.895;-1.004470231;-0.476829286;0.591323508;-1.647334095;1.72177161;-0.852990836;-1.101208968;-0.071694133;0.138367793;-0.102026582;1.887950244;0.121368163;-0.855802846;-0.083027008;-0.463979111;-0.134374291;-0.154456541;0.081268147;-0.919603523;-0.089669313;0.338246746;0.253932886;0.048712844;-0.058664976;walk;17;
44.995;-0.435359194;-0.298911119;0.755574517;0.528704446;-0.883444803;-0.230733842;-1.103669839;-0.097241017;-0.024606957;0.428239137;-0.573641359;0.13512397;-0.975879925;-0.099714765;-0.432855764;0.378253065;-0.301029785;0.241533278;-0.986464885;-0.064126937;0.364731584;0.249831835;-0.066267328;-0.003339532;walk;17;
45.095;-0.391936441;-0.402982162;1.07466361;0.113184662;-0.825726597;-0.208504619;-1.039412359;-0.031703074;0.054781419;0.110856011;-0.927825933;0.266127762;-0.990307156;-0.06116724;-0.307255993;0.023834286;-0.486775167;0.28615534;-1.064363321;-0.132429948;0.291105821;0.082111804;-0.038483618;0.142919642;walk;17;
45.195;-0.245780478;-0.240227135;0.944142893;-0.523930374;-0.134421515;-0.294936917;-0.972998772;0.023583023;0.06306286;-0.071695197;-0.758812965;0.285565559;-0.935135137;0.028732974;-0.234263209;-0.160112626;-0.756394268;0.247119422;-0.916060268;0.000318208;0.146214038;0.124719387;-0.084539337;-0.062324113;walk;17;
45.295;-0.253820594;-0.195532259;0.957034328;-0.325893536;-0.068706491;-0.129681219;-0.981877261;0.052505082;0.162932732;-0.027359497;-0.661016147;0.215772656;-0.978542214;0.062640815;-0.153976852;-0.09670498;-0.602822811;0.194783467;-0.989788735;0.027519791;0.135605418;0.230216852;-0.063201677;-0.054493935;walk;17;
45.395;-0.275432686;-0.155500125;0.959359231;-0.233832356;-0.106402172;-0.036842666;-0.987871694;0.071727419;0.192662515;-0.116436643;-0.487400927;0.134273716;-0.986651403;0.089643408;-0.126518588;-0.153341115;-0.727575749;0.089800505;-0.980281975;-0.021663536;0.215944623;0.163108445;-0.063153735;-0.208191876;walk;17;
45.495;-0.283840899;-0.184887278;0.940881123;-0.131676636;-0.101935399;0.036287189;-0.974208543;0.05298478;0.202228582;-0.159297666;-0.542146164;0.051061704;-0.964375034;0.060783675;-0.110599704;-0.167511356;-0.76414018;0.002058126;-0.933586151;0.068942126;0.218166206;0.050829401;-0.00059502;-0.064274014;walk;17;
45.595;-0.279181359;-0.151003801;0.945885802;-0.194429919;-0.145470903;-0.003767524;-0.966812661;0.073247682;0.298303189;-0.350469374;-0.588945465;-0.026571917;-0.983461557;0.067407883;-0.005368564;-0.330268457;-0.881648631;-0.120545722;-0.926203708;0.049124434;0.277007677;-0.134379548;0.107770728;0.214496609;walk;17;
45.695;-0.285827257;-0.118206016;0.981653641;-0.159350438;-0.37677155;-0.103180437;-1.019308721;0.047084027;0.26854402;-0.547428151;-0.66570081;-0.187739252;-1.012366828;0.093890482;0.023826567;-0.486765796;-0.961516134;-0.314378033;-0.928485028;0.005356706;0.321796533;-0.179540628;-0.005333232;0.164187863;walk;17;
45.795;-0.270879734;0.003143322;1.058468439;0.759065162;-1.105808744;-0.124428827;-1.147169725;0.052550206;0.136960779;0.205672251;-1.057700201;-0.493142057;-1.110959057;0.16549947;-0.039908247;0.315694048;-0.721705262;-0.427293087;-1.049741449;-0.057821921;0.331496847;-0.394392491;-0.105894789;-0.075520198;walk;17;
45.895;-0.152898129;-0.162722081;0.952765367;1.958880451;-3.431724451;-0.397354192;-1.256644897;0.027093889;0.005110871;0.831729157;-2.036043403;-0.517261717;-1.139258853;-0.062569164;-0.389259919;0.961498205;0.675774704;-0.198595728;-1.077963884;-0.087766624;0.171949479;-0.637262998;-0.019804677;-0.167867363;walk;17;
45.995;-0.863600863;-0.381990693;0.997773045;1.553057917;-4.620457321;-0.178956389;-0.889926386;-0.061952662;0.503658758;-0.26286738;-2.144397803;0.01399691;-1.099365905;-0.196593371;-0.130985092;-0.200782515;2.251355232;-0.206754047;-0.932660628;0.034269898;0.077375839;-0.333144073;-0.002236512;-0.007017039;walk;17;
46.095;-0.419344426;-0.484231087;1.054330742;-0.452750068;0.981718636;1.359596983;-0.41403764;-0.116199937;0.670583445;-0.293385789;0.412295237;0.521643602;-1.1594585;-0.122454176;0.003620457;-0.603754747;2.355576941;-0.02727538;-0.988976385;-0.077450975;0.197549542;-0.11190241;0.096324964;0.186956382;walk;17;
46.195;-0.182280176;-0.488497564;0.720977365;-1.914671193;4.354541468;1.363307315;-0.356273728;-0.128609778;0.549494351;0.078504978;3.838824189;0.236459669;-0.871934694;-0.058759262;0.103212675;-0.170992549;1.310427285;0.16917628;-0.896655188;-0.050863015;0.233548532;0.044001639;0.048216036;0.171348219;walk;18;
46.295;-1.055532423;-0.806398569;0.90393282;-2.053638114;4.248409023;0.441226702;-1.00618534;-0.115473554;0.438279456;0.251560866;4.84038424;-0.081923577;-0.773443192;-0.100960356;-0.206250494;0.244735785;-0.107786948;0.086698475;-0.931818354;-0.080959242;0.289216089;0.284957773;0.077352608;-0.167847325;walk;18;
46.395;-1.523918002;-0.392896771;0.311213729;-0.902124685;0.719275793;-1.484376745;-1.288016139;-0.033919795;0.21579555;0.535118825;0.995773978;0.012102141;-0.959405027;-0.054510605;-0.57815132;0.510723043;-0.406908702;0.166465234;-0.937412269;0.008459995;0.416805874;0.509593291;-0.020869018;-0.106339246;walk;18;
46.495;-0.705289089;-0.385502224;1.121425699;0.873523882;-1.18885725;-0.323449566;-1.056051224;0.02640967;0.20191172;0.852535858;-1.736628483;0.223883006;-1.026713402;0.01547433;-0.221798254;0.722612231;-0.52801157;0.502663205;-1.087539078;-0.083860877;0.297348312;0.425977592;-0.103209827;0.190184291;walk;18;
46.595;-0.274034107;-0.431945666;0.879053874;-0.005635918;-0.050140402;-0.084315363;-0.916873243;0.006277928;0.387879878;0.393276001;-1.151247364;0.298686486;-0.983118345;-0.027294767;-0.028234964;0.244074064;-1.255369391;0.430175339;-0.925760396;-0.022015036;0.060272599;0.674300123;-0.221575139;-0.135250059;walk;18;
46.695;-0.237076708;-0.316063817;0.928918414;-0.512747617;-0.271982181;-0.304567796;-1.007143999;0.033818178;0.297822324;-0.194832334;-0.80263513;0.232059091;-1.014858582;0.051372747;-0.080814909;-0.266342375;-1.317490453;0.147126896;-1.035866425;-0.061917044;0.08191922;0.208692756;-0.161273113;-0.138001346;walk;18;
46.795;-0.29623049;-0.161996154;0.948859723;-0.615916776;-0.700861662;-0.457964576;-1.004287717;0.102674055;0.270556359;-0.581655758;-0.833832248;0.098430821;-0.994502983;0.078259732;-0.07705209;-0.584085054;-1.329618503;-0.084909912;-0.949546566;0.044731502;0.200557851;-0.080502113;0.094312433;0.02181153;walk;18;
46.895;-0.399929256;-0.10620358;0.941750817;-0.241148196;-1.151540759;-0.078873123;-0.997814666;0.052672093;0.232723321;-0.631500064;-1.091277572;0.013332771;-0.962633801;0.095212882;-0.022961606;-0.61200275;-1.345942016;-0.158048593;-0.863185815;-0.049874932;0.300205208;-0.586487924;0.337618228;0.453756212;walk;18;
46.995;-0.26072908;-0.07805777;0.949193468;0.655930157;-2.147328338;-0.466893144;-1.178759686;0.047553075;0.059040644;0.212370948;-1.727420886;-0.367341614;-1.060244353;0.185806423;-0.19536518;0.311301646;-0.867719545;-0.282977877;-0.925377074;-0.008303084;0.442808977;-0.830490631;0.000215223;0.046188387;walk;18;
47.095;-0.529675684;-0.172883482;1.023543924;1.079997122;-5.865974418;-1.161410352;-1.438588684;-0.004829247;0.025533122;0.283769759;-2.536952166;-0.519348784;-1.309259292;-0.125920958;-0.482191601;0.500957444;1.053129602;-0.353954635;-1.216600219;-0.08914017;0.178110848;-0.368280676;0.028572681;-0.594860315;walk;18;
47.195;-1.260284841;-0.340471985;1.631695479;0.795205015;-1.864148925;2.134625295;-0.695889527;-0.08466956;0.646126977;-0.642452321;-1.097008732;0.430162161;-1.273300899;-0.241743407;-0.019010173;-0.738626243;2.983679258;-0.295898708;-0.956172204;0.075417191;0.084378689;-0.267774694;-0.010783251;-0.01815077;walk;18;
47.295;-0.067611987;-0.361012128;0.640524161;-2.461689391;4.913055107;1.394834326;-0.240085689;-0.143811026;0.654252458;-0.224965094;2.807476987;0.719583002;-1.095277863;-0.074545594;0.19217586;-0.749295806;2.678353595;0.08267173;-0.918949446;-0.062917548;0.154380259;0.255673085;0.032058998;0.194114851;walk;18;
47.395;-0.577700382;-0.766890196;1.099027448;-1.750771601;5.45314856;2.329596561;-0.590206191;-0.112904293;0.513562541;-0.058832607;6.006245694;0.31556228;-0.710003929;-0.092524157;0.153601923;-0.295976989;0.841180872;0.162760657;-0.86387725;-0.094403479;0.309873269;0.376282922;0.014854943;-0.156810811;walk;18;
47.495;-2.064494947;-0.749464792;0.326422201;-2.391463867;2.874033825;-1.244244116;-1.357544186;-0.118778831;0.281278115;0.126110214;3.436337895;0.077890216;-0.812828686;0.010105587;-0.566462027;0.100059426;-0.358929685;0.058899313;-0.893343721;0.027240965;0.438254973;0.633675726;0.089586692;-0.387591514;walk;18;
47.595;-1.080553756;-0.531002357;0.890410727;1.291464235;-2.221909196;-0.736186431;-1.24001257;0.009490736;0.220169285;1.04451121;-2.176166336;0.112375395;-1.090447438;-0.077669412;-0.407527868;0.967943657;-0.310695241;0.384151861;-1.133669107;0.02246802;0.308004285;0.540680026;-0.055753441;0.228247748;walk;18;
47.695;-0.482753269;-0.42017018;1.038697342;0.019615459;-0.443387938;-0.12413107;-0.884922319;0.05503231;0.605595861;0.256816667;-1.735924501;0.285431754;-1.064428275;0.045914881;0.188748453;0.112949603;-1.365308072;0.366046302;-1.027869993;-0.166296836;0.102900638;0.323636108;-0.042609472;0.302844148;walk;18;
47.795;-0.206378983;-0.248532743;0.937456043;-0.587792118;-0.303568535;-0.085084797;-0.976758207;0.071871764;0.278914;-0.490069006;-0.918391797;0.214969735;-0.971513192;0.047698466;-0.113221279;-0.537121381;-1.804341102;0.016048116;-0.891566649;-0.019660861;0.144948358;-0.365865208;-0.191791533;-0.005688974;walk;18;
47.895;-0.258510605;-0.173814289;0.962439689;-0.647861948;-0.592659301;-0.096315049;-1.031300792;0.06011266;0.203497865;-0.915412421;-0.955952815;0.070068738;-0.966867726;0.064978899;-0.117960012;-0.896986497;-1.782584194;-0.202824327;-0.889810241;0.091901295;0.220522282;-0.53650652;0.105459605;0.329050883;walk;18;
47.995;-0.298418809;-0.049932771;1.040047169;0.115206469;-1.297781567;-0.261893583;-1.120845569;0.019733557;0.071470865;-0.365862828;-1.458089942;-0.304509154;-1.024496306;0.164145544;-0.093999057;-0.280323776;-1.508050112;-0.385376848;-0.838736027;-0.031206229;0.398422139;-0.707087654;0.195348283;0.489496613;walk;18;
