Header,foot_Accel_X,foot_Accel_Y,foot_Accel_Z,foot_Gyro_X,foot_Gyro_Y,foot_Gyro_Z,shank_Accel_X,shank_Accel_Y,shank_Accel_Z,shank_Gyro_X,shank_Gyro_Y,shank_Gyro_Z,thigh_Accel_X,thigh_Accel_Y,thigh_Accel_Z,thigh_Gyro_X,thigh_Gyro_Y,thigh_Gyro_Z,trunk_Accel_X,trunk_Accel_Y,trunk_Accel_Z,trunk_Gyro_X,trunk_Gyro_Y,trunk_Gyro_Z,Label
10.195,-0.242450062782916,-0.174415336264279,0.956949115970563,0.128111520818391,0.0121877136274909,0.0386651181317723,-0.990422971222346,-0.043247290902971,0.138847868376132,0.21064866251154,-0.091277972758194,0.0646596820575402,-0.997456665983693,-0.0406087196728197,-0.0718436957514302,0.19207566778967,0.0571010347144266,0.107989078319862,-0.966375231334617,-0.0504189997770096,0.254278653931368,-0.0296569881946387,0.0034595383314597,0.0398692732035231,stand
10.2,-0.244152920185848,-0.171506995093981,0.959445994456882,0.130367492462508,0.0124267219089416,0.0393049187385218,-0.992181634757484,-0.0450664005859407,0.130805613014487,0.212890389801202,-0.0919502009622846,0.0644751253241971,-0.997864079175971,-0.0401094201769441,-0.0773561627619615,0.194225484210803,0.057979376745358,0.108424340546529,-0.966795065187713,-0.0562107302868866,0.253143406437256,-0.0298223898168709,0.003702416190318,0.0400516135531419,walk
10.205,-0.247628299322341,-0.164896748191414,0.963850524917413,0.137708728275498,0.0130577628026299,0.041391907890459,-0.995132786062902,-0.0497303327074771,0.114992559965581,0.220699261971373,-0.0946750211703956,0.064538864989094,-0.99837049119713,-0.0408770779255911,-0.0877424889758912,0.201757324275299,0.0606524085350482,0.110306207577142,-0.96732767367408,-0.0692472571793156,0.251215350965416,-0.03048511259139,0.0044727563560278,0.0408778792869636,walk
10.21,-0.250081358033673,-0.160005002643666,0.966528663542447,0.14947330997758,0.0139371905746597,0.0447454439527239,-0.996688007930459,-0.0534701005210084,0.104284529422302,0.233773306954009,-0.0992799963160573,0.0651718159495979,-0.998465435221966,-0.0422052016987293,-0.0947722195835719,0.214301916314526,0.0647779381518063,0.113895049534114,-0.96769605317068,-0.0799640120342316,0.249833326526039,-0.0316562270489705,0.005758440998233,0.0424678710263779,walk
10.215,-0.250873935467622,-0.158210736852291,0.967427382643185,0.16348317865632,0.0149628299744338,0.0486827632545257,-0.996910735583023,-0.0546876970950773,0.100882351992669,0.249524043236898,-0.104634217197454,0.0660607387143638,-0.998361501957147,-0.0422647358898893,-0.0968213791428604,0.229393571605779,0.0694266089288489,0.118342466772161,-0.968293431608709,-0.0840801566342022,0.248768459089466,-0.0330519113483367,0.0074392260844605,0.0445188012148338,walk
10.22,-0.250698662173477,-0.158273206084269,0.967191782661966,0.178261421572096,0.0160595522684241,0.052752914197201,-0.996284280116217,-0.0543388009716376,0.101888219443153,0.266184666973851,-0.109973189775223,0.0669941546189921,-0.998101849573974,-0.0415386647292645,-0.095889656441248,0.245350246059576,0.0739696414681909,0.123068422758273,-0.968885254815648,-0.0842757389854746,0.247972718348998,-0.0344618812072258,0.009413606629708,0.0467900193677752,walk
10.225,-0.250123457704777,-0.159199620020868,0.966396603829365,0.193078158907212,0.017185588237291,0.0567466751500115,-0.995249286160754,-0.0533114229744436,0.104787161878282,0.282880676323205,-0.114937091898971,0.0678776618766318,-0.997741557283477,-0.0405390422048444,-0.0937304036657681,0.261337900712483,0.0781192091068634,0.127794537299618,-0.969195872272283,-0.0828925252905405,0.247457767452847,-0.0357559839916192,0.0115799324025191,0.0491262092350003,walk
10.23,-0.249452435756618,-0.160500022566608,0.96537014769597,0.207659104685979,0.0183208361875362,0.0605982528294379,-0.99406889700249,-0.0521344713835391,0.108170327680221,0.299293941336375,-0.119428688324478,0.0686946977529964,-0.997320382234665,-0.0396162451307312,-0.0913586822243177,0.277049722150461,0.0818136473492973,0.132436264955744,-0.969072844508644,-0.0812389913985539,0.247229278111479,-0.0368522475624829,0.0138244528827103,0.0514356294840337,walk
10.235,-0.248792292210979,-0.16207621423174,0.964232375001142,0.221888095190916,0.0194592660208024,0.0642862625892022,-0.992847500746569,-0.0510151866522857,0.111546849597365,0.315318051710969,-0.123466875249861,0.0694644935205051,-0.996850571878096,-0.0389545432942089,-0.0891843313620714,0.292378032897663,0.0850884902707325,0.136988912275549,-0.968580305939518,-0.0797817342369173,0.247210750037806,-0.0376900154299243,0.016042413592931,0.0536614169322496,walk
10.24,-0.248161748623254,-0.164009844440082,0.962995741531496,0.235623124459032,0.0206094646427798,0.0677739002389195,-0.991596750149381,-0.0499756429750849,0.114917713647881,0.330845654253769,-0.127096270830003,0.0702155395349411,-0.996322507687617,-0.0386182119528728,-0.0872817562335392,0.307212249879983,0.0879889623733786,0.141455953010929,-0.967964030212649,-0.0785467819913525,0.247239460598921,-0.038218821956066,0.018176917711546,0.0557612332803448,walk
10.245,-0.247569203698973,-0.166372317642519,0.961653184423736,0.248649790388318,0.0217975155412125,0.0709964567040187,-0.990295387198229,-0.0489742529702492,0.118429037427785,0.345706205597472,-0.130348734486334,0.0709729324096027,-0.995724325144215,-0.0385799135424525,-0.0855739455085842,0.321380945544859,0.0905297650232052,0.145822860309618,-0.967507979972701,-0.0774189497011564,0.24714159194183,-0.0383969202428828,0.0202416375285982,0.0576977949229781,walk
10.25,-0.247034140045176,-0.16912783449695,0.960220258713809,0.260740982516445,0.0230643567576211,0.0738850027462323,-0.988927002885294,-0.0479760508028073,0.122187645318568,0.359712470758057,-0.133233634946289,0.0717527954889518,-0.995062290239643,-0.0387449725666072,-0.0839234050977689,0.334698552155012,0.0926890427550635,0.150061593910579,-0.967372806011677,-0.0762799899216069,0.246828601008532,-0.0381907853726464,0.0223057051667103,0.0594378522502068,walk
10.255,-0.246561767779968,-0.172158069309349,0.95872787651863,0.271740552941173,0.0244527334002233,0.0763967993801519,-0.987497488944963,-0.0469748939190702,0.126211641345724,0.372732502507843,-0.135740557218046,0.0725611434261779,-0.994368066013585,-0.0390074067047259,-0.0822003759944831,0.347035883923631,0.0944227909988916,0.154145408595582,-0.96751183517891,-0.075038960035427,0.246346359768552,-0.0375718126803051,0.0244477542843943,0.0609564307140931,walk
10.26,-0.246110149238209,-0.175358308664233,0.957192589605374,0.281585717326351,0.02598641226417,0.0785220549522518,-0.986037239120831,-0.0459868245582866,0.130453541638445,0.384708846954622,-0.13784877376245,0.0733981560821942,-0.993689459129969,-0.0393229055877822,-0.0803514352678412,0.358337904477606,0.095689162076529,0.158057590332261,-0.967701974243732,-0.0736248688958955,0.245849376695567,-0.0365118216664909,0.0267062988741726,0.0622434566557362,walk
10.265,-0.245590366952375,-0.178708605295773,0.955601458135881,0.290251024698999,0.0276526492371243,0.080261537774394,-0.984592071938536,-0.0450348002649306,0.134838863714965,0.395611052731555,-0.139540361406867,0.0742664897063242,-0.993072322150925,-0.0397415240685726,-0.0784325405451981,0.368575519960193,0.0964719083319245,0.161789264851678,-0.967659931822507,-0.0719856419895915,0.245521122301814,-0.0349809837446124,0.0290526458314735,0.063309486666094,walk
10.27,-0.244904674096627,-0.182265454002978,0.953925549963153,0.297669334658015,0.0293996218131422,0.081596210128782,-0.983208095734121,-0.0441365467152127,0.139289669682835,0.405370786389515,-0.14081169003431,0.0751783714610739,-0.992544314298331,-0.0403713463516801,-0.0765813875961663,0.377680693375409,0.0967924279246529,0.165331822067452,-0.967178434682899,-0.0701030951109377,0.245485424667861,-0.0329505685325118,0.0313976002319213,0.064186902750887,walk
10.275,-0.243992081885744,-0.186095083177793,0.952147071579666,0.303693594479193,0.0311510277985599,0.0824730106631565,-0.981918264437716,-0.0432987208916505,0.143730150818334,0.413853610166368,-0.141678469081875,0.0761568090027332,-0.992108548230725,-0.041303323078958,-0.074950203511296,0.385518633169088,0.0967058196735154,0.168671570471544,-0.966211360118568,-0.0680074005728753,0.245755010745676,-0.0303999562613319,0.0336258455985268,0.064924630415664,walk
10.28,-0.242848613993396,-0.190204671299942,0.950277975092535,0.308121598176846,0.0328283643903309,0.0828149711374849,-0.980737612391101,-0.0425170853532634,0.148084999801567,0.420883791204076,-0.14217309834517,0.0772305671102179,-0.991750431649117,-0.0425516960935695,-0.0736410269709392,0.391913068897958,0.0962855130071151,0.171790293822179,-0.96485998572239,-0.0657681114362036,0.246245980308943,-0.0273238859451806,0.0356373068066039,0.0655782786850133,walk
10.285,-0.241512691365896,-0.194518327324699,0.948358594340718,0.310761475639529,0.0343671940933302,0.0825468641782874,-0.979668673438304,-0.0417809045176399,0.152280880692349,0.426300746468144,-0.14233676621037,0.0784265337496972,-0.991453259510619,-0.0440470682309583,-0.0726780205221257,0.396702924192756,0.0956068777856374,0.174670708000996,-0.963273769937232,-0.0634580004761226,0.246846525243537,-0.0237342545804694,0.0373702051710485,0.0662008665754315,walk
10.29,-0.240032523011791,-0.198908910472031,0.946440101881343,0.311490755392004,0.0357195399750261,0.081618440802435,-0.978711504752151,-0.0410779100796517,0.156253275570082,0.430006624128629,-0.142211264001776,0.0797644489277308,-0.991211019624612,-0.0456793639878182,-0.0720272392783983,0.399789800051368,0.0947390386580839,0.177302521963293,-0.961545308926639,-0.0611160265882152,0.247486104196473,-0.0196539433773964,0.0387942193930325,0.0668387950313847,walk
10.295,-0.238445972303882,-0.203249199095443,0.9445676581919,0.310272893514239,0.0368459804935655,0.0800116054247644,-0.97786949690938,-0.0403966017731073,0.159952495636668,0.4319764865297,-0.14183501140898,0.0812565274307814,-0.991029261776513,-0.0473462428864133,-0.0716369372921022,0.401147916445529,0.0937465159309829,0.17968485571971,-0.959681539657098,-0.0587441764930925,0.248152518828167,-0.0151070697000166,0.0398863385084251,0.0675331649205262,walk
10.3,-0.236790334388105,-0.20743229521372,0.94278001446235,0.307141320937303,0.0377094023694574,0.0777348470855296,-0.977146416760759,-0.0397259328666831,0.163342628210564,0.432242731019192,-0.141243292828196,0.0829094546216825,-0.99091589959863,-0.048961022711895,-0.0714556519479484,0.400808435939407,0.0926938109231925,0.181824997676545,-0.957658843235005,-0.0563441171923628,0.248854807958728,-0.0101141376727936,0.0406137346116721,0.0683218625906973,walk
10.305,-0.235126515584882,-0.211357628557805,0.94112157846778,0.302190845778225,0.0382800135327041,0.0748195112622078,-0.976538768650466,-0.0390547025002132,0.166396509237653,0.430889012390189,-0.140468710636478,0.084724069605471,-0.990871459558382,-0.0504269253114041,-0.0714200821552447,0.39885357539086,0.0916448511678666,0.183737031286943,-0.955494976196308,-0.0539610886743455,0.249577008880229,-0.0046966209835902,0.0409364953476123,0.0692378209678717,walk
10.31,-0.23354578274219,-0.214924783414157,0.939647499459319,0.295589770008636,0.0385497651774504,0.071323561355479,-0.976031941122999,-0.0383722556624681,0.169095344610445,0.428063756728799,-0.139539403853921,0.0866919524934474,-0.990886000763304,-0.0516270715984395,-0.0714463182315154,0.395430504174205,0.0906566968971841,0.185442014017105,-0.953271825462727,-0.051696761686275,0.250264305353206,0.0011127953287838,0.0408229291240068,0.0703035770643201,walk
10.315,-0.232147612053896,-0.218058846286641,0.938411949276086,0.287585051523634,0.0385451426703222,0.067333900274365,-0.975604350113221,-0.0376704352895115,0.171435164094592,0.423987125119348,-0.138476903127785,0.0887929634340312,-0.990943161677375,-0.0524549337923023,-0.0714485717621824,0.390758666565194,0.0897738692893498,0.186967579582236,-0.951105575206323,-0.0496836057760051,0.250842316978767,0.0072621467020599,0.0402622578074776,0.0715265333556511,walk
10.32,-0.231006309395701,-0.220742476386166,0.937449583890286,0.278476011387458,0.0383285074959545,0.0629589857176538,-0.975236302753584,-0.0369460231897374,0.17343383616293,0.418928441127053,-0.137296322771647,0.0909973041924701,-0.991027736612416,-0.0528576471911632,-0.071369279836443,0.385107353508568,0.0890280805238737,0.188344906399918,-0.949107727031641,-0.0480433435935289,0.251242127973351,0.013679057298344,0.0392675222713701,0.0728990351239073,walk
10.325,-0.23014910314381,-0.22302062613172,0.936764824408852,0.268567254301162,0.0379861396378301,0.0583148611087635,-0.974917365536047,-0.0362028594452625,0.17513272179803,0.413162620961897,-0.136008590415195,0.0932713542346597,-0.991132944158242,-0.0528536243867835,-0.0711911307017625,0.378752004667263,0.0884416317636949,0.189604159997567,-0.947369229090283,-0.0468546751754796,0.251411819917971,0.0202760798103265,0.0378722922294559,0.0744037846482006,walk
10.33,-0.229554195185276,-0.224975310411768,0.936333540680958,0.258129166625714,0.0376080152683809,0.053512629758599,-0.974648495849351,-0.0354527006250565,0.176592706098273,0.406931267562201,-0.13462221920092,0.0955838394686334,-0.991264553928426,-0.0525162276325951,-0.0709234724653318,0.371934983569183,0.0880298460329257,0.190771094025784,-0.945961491312127,-0.0461412232901035,0.25131850805125,0.0269594617752458,0.0361268144280695,0.0760219833754058,walk
10.335,-0.229165272067664,-0.226694103773387,0.936112659349108,0.247381552640813,0.0372674364671359,0.0486508659894895,-0.974438712392801,-0.0347137060588499,0.177887527807549,0.400424519975958,-0.133143051220694,0.0979095916655416,-0.991439852732237,-0.0519418244549577,-0.0705784469194434,0.364847095639075,0.0878006731521983,0.191866077249741,-0.944932147437015,-0.0458796531637153,0.250953224156931,0.0336382164855857,0.0340940449400774,0.0777404830088057,walk
10.34,-0.228914702705796,-0.228254136635798,0.93605125462427,0.236495705887263,0.0370083558413252,0.0438118107332971,-0.974298343962405,-0.0340059075092454,0.179096743290805,0.393781624745934,-0.131572659219392,0.100230265776131,-0.991680966953316,-0.05122285573004,-0.0701558189357405,0.357628014472743,0.0877533810091489,0.192904597972401,-0.944291192557242,-0.0460229884684012,0.250339493623836,0.0402309161567899,0.0318423645002028,0.0795546423009857,walk
10.345,-0.228746036744275,-0.22972506613385,0.936098664244689,0.225601561273223,0.0368442946092203,0.0390602549200182,-0.97423249364254,-0.0333446554912521,0.180298486897609,0.387098129103689,-0.12990738997936,0.102533038632762,-0.992004986094393,-0.0504352957742218,-0.0696457450622107,0.350373620074434,0.0878789308991515,0.19389743483375,-0.944006308913727,-0.0465296774873774,0.249533028188949,0.0466683672954417,0.0294347554736161,0.0814654414414688,walk
10.35,-0.22862714026377,-0.23117930548362,0.936208177076235,0.214790335058603,0.0367665590655805,0.0344452263659388,-0.974238288147769,-0.0327348938949042,0.181561279454929,0.380429158162079,-0.128139792533298,0.104808892742485,-0.992415641919146,-0.0496384357045898,-0.069045425086654,0.343139638075624,0.0881626463026881,0.194849526388907,-0.944023443037684,-0.0473859967762824,0.24860342851176,0.0528915551145849,0.0269202197283236,0.0834724836234423,walk
10.355,-0.22854995377756,-0.232695415168916,0.936336993576269,0.204111493816276,0.0367553201697597,0.030003685548187,-0.974306080736237,-0.0321690751098283,0.182937323475101,0.37378659962604,-0.126262645898315,0.107051575563572,-0.99290046342778,-0.0488789421982946,-0.0683742226563352,0.335939207233035,0.0885877883916004,0.195758038826483,-0.944301056295707,-0.0486115638581752,0.247607911327009,0.0588460455323797,0.0243339610788736,0.085566641192376,walk
10.36,-0.228519425733532,-0.234349224255602,0.936443635334371,0.193569258862954,0.0367875320710982,0.0257641539969953,-0.974420984732149,-0.0316292670610516,0.18446357871595,0.367135444962074,-0.124273454221529,0.109257272821843,-0.993433912388472,-0.0481923516834329,-0.0676709117163127,0.328739455589425,0.0891378558388285,0.196610921566267,-0.944829130581628,-0.0502447815052843,0.246578292552752,0.0644762902902602,0.0217056869760708,0.0877251775558843,walk
10.365,-0.22853934410356,-0.23619895553578,0.936484204785266,0.18312428036349,0.0368391248220605,0.0217483015900923,-0.974562148972124,-0.0310917996418847,0.186172954478376,0.360395569175094,-0.122175972214244,0.111424397290156,-0.993983864067419,-0.0476017582175496,-0.0669723981358782,0.321463319007282,0.0897956089044825,0.197386914663764,-0.945621155169682,-0.0523150015955617,0.245529008284603,0.0697243145950635,0.0190684220715562,0.0899096501346449,walk
10.37,-0.228603539322583,-0.238275824461188,0.936409777293009,0.172700435828816,0.03688259462327,0.0179689791829765,-0.974701848475618,-0.0305321763438496,0.188107710359991,0.353450062039509,-0.119977273418307,0.113553183951357,-0.994518102453139,-0.0471185603959855,-0.0662921611302968,0.31399775456214,0.0905382979952646,0.198057010170874,-0.946693541235928,-0.0548161073115142,0.244473995248036,0.0745347504162344,0.016461997193795,0.0920659845201943,walk
10.375,-0.228696684455588,-0.240584496349561,0.936167562709045,0.16219161252983,0.0368828093749191,0.0144246786635943,-0.974807736215787,-0.0299281718633844,0.190323834447348,0.346155649295728,-0.117682662797555,0.115645455129981,-0.995009139137707,-0.0467463837357217,-0.0656146096208119,0.306203935304064,0.091331319064803,0.198586639090727,-0.94804551615792,-0.0576953333595695,0.243441257452764,0.078863738035032,0.0139314019886372,0.0941267497293393,walk
10.38,-0.228804109537747,-0.243105692148203,0.935707602789227,0.151467248632163,0.0367934236660061,0.011094473060295,-0.974847684909555,-0.0292596477400958,0.192883072654405,0.338351896769306,-0.115291941318468,0.117704790170262,-0.995437195685578,-0.0464801943405162,-0.0649009985976898,0.297926161321134,0.0921242549071016,0.198937997091253,-0.949638939196891,-0.0608635998366351,0.242485536944188,0.0826873450639213,0.0115207176638793,0.0960149180099061,walk
10.385,-0.228927199531408,-0.245793154607175,0.934994299677226,0.140384330058722,0.036556132862366,0.0079401097525195,-0.974793934817309,-0.0285056078964345,0.195837763956074,0.329873023539735,-0.112798223990183,0.119736188501369,-0.995790914991952,-0.0462937902459929,-0.0640943481344039,0.289003411415223,0.0928517073877416,0.199072596380649,-0.951387747776813,-0.0642260324454432,0.241693846326932,0.0860060667831027,0.0092615511789802,0.0976462017741105,walk
10.39,-0.229096475363186,-0.248571498022414,0.93401755804103,0.128811931919889,0.036105377969697,0.0049171030118946,-0.974625587679119,-0.0276417413286627,0.19921595908329,0.320567854898755,-0.110188544512495,0.12174388009536,-0.996065326595777,-0.0461256258984373,-0.0631250340304415,0.279289217720581,0.0934378372779978,0.198954173697935,-0.953181249679466,-0.0677212044248694,0.241167654515241,0.0888426771343306,0.007160157635636,0.0989274254283325,walk
10.395,-0.22937056627466,-0.251349138088305,0.932795489742277,0.116658792878109,0.0353786198442742,0.0019874937673293,-0.974331307558086,-0.0266420863311076,0.203013811854554,0.310323159375131,-0.10744588811179,0.123727674584691,-0.996258732974884,-0.0458845824200238,-0.0619281834204155,0.268675158192482,0.0938016996915084,0.198551187786031,-0.954942297181334,-0.0713455456138185,0.240980332366776,0.0912321935008179,0.0051944220705457,0.0997527777669564,walk
10.4,-0.229815549116585,-0.254047429445684,0.931364937776004,0.103883401333775,0.0343270068820039,-0.0008759640750106,-0.973912809161956,-0.0254852699265751,0.207200004836522,0.299074935934073,-0.104552804122414,0.125680574749227,-0.996371787374395,-0.0454837946634563,-0.0604712641744559,0.257102350780916,0.0938613554916026,0.197837626147691,-0.956682141816753,-0.0751414218937973,0.241136223756252,0.0932073650616685,0.0033277754637584,0.100003636724373,walk
10.405,-0.230474172706561,-0.256628211498031,0.929765063738349,0.090475159200211,0.0329190673340112,-0.0036974745349687,-0.973386522077987,-0.0241618698466511,0.211730800879641,0.286796194455593,-0.1014956588138,0.127590411803521,-0.996409950429617,-0.0448837914270632,-0.0587734889453837,0.244549180977705,0.0935361551334248,0.196791761011658,-0.958510568032707,-0.079151900126967,0.241561398758364,0.0947875646952442,0.0015345221783013,0.0995563381111681,walk
10.41,-0.231344137585026,-0.259098837721216,0.928024551006442,0.0764162941474018,0.0311343948878403,-0.0065118504371519,-0.972780338414437,-0.0226780582328357,0.216566707389162,0.273466314847983,-0.0982673001968163,0.12944552209904,-0.99638680189808,-0.0441136287743359,-0.056899527309076,0.231000188921286,0.0927471850462691,0.195394008734002,-0.960589892876193,-0.0833730895399823,0.242135482329504,0.0959777151115252,-0.0001771902853443,0.0982965760210633,walk
10.415,-0.232380429835808,-0.261489294763599,0.926160950337054,0.061648800426113,0.0289518405607987,-0.0093745735800005,-0.972125680704718,-0.0210527908674636,0.221678692933571,0.259041488190829,-0.0948663162420298,0.131241236454369,-0.996324542419729,-0.0432521650855836,-0.0549281005297808,0.216415802487574,0.0914169195026668,0.193625673565932,-0.963049750817112,-0.0877389569579724,0.242752396070564,0.0967770451307369,-0.0017584672331954,0.0961334899078934,walk
10.42,-0.233521827964629,-0.263817057034065,0.924193158337439,0.0460676666092619,0.0263418046987061,-0.0123617602159502,-0.971449357487769,-0.0193104409796658,0.227037386030211,0.24344623754231,-0.0912933893374841,0.132982983979236,-0.996250223371164,-0.0423813184971062,-0.0529167227664768,0.200723315771441,0.0894709388231544,0.191469710423959,-0.965900869607475,-0.0921478295419842,0.243380995246966,0.0971908228733111,-0.0031364016216677,0.0930056567042953,walk
10.425,-0.234724373462846,-0.26606420827327,0.922158426266174,0.0295425364670574,0.0232706048938962,-0.0155607503657687,-0.970770479419737,-0.0174743720022377,0.232591252192285,0.226591368057506,-0.0875477983719765,0.134684268897743,-0.996189468777481,-0.0415451965368557,-0.0508889858281189,0.183834715609615,0.086844367044165,0.188913367337342,-0.969000708756064,-0.0965068035070011,0.244087089925874,0.0972369724600077,-0.0042492940424431,0.0888771043284024,walk
10.43,-0.235976732903421,-0.268179178237973,0.920119963075949,0.0119503782016524,0.0197158828894527,-0.019057803915882,-0.970103463930643,-0.0155655077677272,0.238250405088481,0.20840509721843,-0.083627167420171,0.136361699635785,-0.996161258758481,-0.040742466583961,-0.0488518127007819,0.165677978918527,0.083491661099059,0.185951536758977,-0.972105260480104,-0.100759328997926,0.244994826220467,0.0969440077679679,-0.0050805946496101,0.0837295470032406,walk
10.435,-0.237284629462259,-0.270094347517498,0.91815696747658,-0.0068009651732419,0.0156816754583334,-0.0229287028655186,-0.969462837006289,-0.0136047113322558,0.243889956747882,0.188856956137116,-0.0795303278750176,0.138031068743456,-0.99617638387133,-0.0399497870648985,-0.0468237797392942,0.146221090523047,0.0793939056235839,0.182589409092271,-0.974980819313157,-0.104880525277057,0.246209584817154,0.0963430916259395,-0.005669186196723,0.0775593503138733,walk
10.44,-0.23863824360851,-0.271741998162337,0.916343650758734,-0.0267649453321082,0.0112005217344613,-0.0272329284595862,-0.968864863602038,-0.0116144283877747,0.249370160933442,0.167963018405894,-0.0752600024385727,0.139706736852751,-0.996239137278435,-0.0391497512144336,-0.0448490093910813,0.125477161064633,0.0745584755067637,0.178843526142452,-0.977495230026009,-0.108854997324344,0.247759589781715,0.0954602341030066,-0.0060900078641752,0.070381896821551,walk
10.445,-0.239992792920489,-0.273059795557699,0.914733929832425,-0.0479567386403983,0.006321068169173,-0.0320087838621826,-0.968325295096232,-0.0096168524176769,0.254556287424245,0.145776760990185,-0.0708226910377538,0.14140314756055,-0.996349621958386,-0.0383384492322686,-0.0429881194050417,0.103495130529136,0.0690125443873111,0.174741096264303,-0.979618950293659,-0.112664233997736,0.249601316716887,0.0943124661130516,-0.0064224185317436,0.0622378982845869,walk
10.45,-0.241279841246053,-0.273990409232842,0.913362751452496,-0.0703519848909469,0.0010927750443728,-0.0372683447089072,-0.967856582363621,-0.0076304960080735,0.259324973243572,0.122378897369076,-0.0662265864185155,0.143135380404991,-0.996504834381524,-0.0375110685595202,-0.0412980908046455,0.0803497582669199,0.0627978245511495,0.170318017682035,-0.981342362290041,-0.116294036171431,0.251680044524563,0.0929072546399571,-0.0067331370435794,0.0531936893172353,walk
10.455,-0.24243769793436,-0.274484538832086,0.912258936413219,-0.0938823694837917,-0.004438836101666,-0.042995130195466,-0.967467941323383,-0.0056692619910179,0.263560051187231,0.0978753814681853,-0.0614803682713389,0.144916899108083,-0.996698966374351,-0.0366454716476008,-0.0398192659569058,0.0561402595807054,0.0559722606633502,0.165616268283515,-0.982588699842621,-0.119747422902275,0.253989760583894,0.0912423588999032,-0.0070863883083773,0.0433330719790897,walk
10.46,-0.243433803218392,-0.274510207601786,0.911454825181214,-0.118435155114908,-0.0102239853981291,-0.0491484313068681,-0.967168738220393,-0.003745288654635,0.267149904571721,0.0724011838219182,-0.0565945991690248,0.146755647133417,-0.996924345743361,-0.0357030330896016,-0.0385789293750481,0.0309949633391514,0.0486169142622832,0.160681183394599,-0.983199953936349,-0.123043513673311,0.256581459954273,0.089304878806873,-0.0075690514549383,0.0327460528715695,walk
10.465,-0.244263750271964,-0.274062529757888,0.910983880323586,-0.143862424882547,-0.0161975576556063,-0.0556734142629265,-0.966973079712894,-0.0018727082905738,0.269992751241439,0.0461203499469017,-0.0515851581910602,0.148651353808505,-0.997173548918387,-0.0346469781390988,-0.0376069308601537,0.0050720760007605,0.0408413134546563,0.155558880556925,-0.983003346893844,-0.126199093160852,0.2595173970173,0.0870707122008625,-0.0083069705983073,0.0215218821100982,walk
10.47,-0.24493505116483,-0.273166693626005,0.910870653731731,-0.169997391001966,-0.0222769998696541,-0.0625108002449354,-0.966902905663073,-6.92721575965894e-05,0.272006761369974,0.0192162225567467,-0.0464770015741019,0.150595927928815,-0.997441804693085,-0.0334626276275534,-0.0369504212591005,-0.0214498440211302,0.0327821679238361,0.150293985851971,-0.981906429720232,-0.129205548491435,0.262808254591952,0.0845063785270088,-0.0094579969131212,0.0097493701009895,walk
10.475,-0.24545452311962,-0.271872458189771,0.911123497673227,-0.196670421805751,-0.0283715860229991,-0.0696015466046839,-0.966987779421528,0.0016443253773339,0.273139237648321,-0.0081252221943896,-0.041306766413245,0.152576389079207,-0.997728126621915,-0.032164642578013,-0.0366767198852005,-0.0483887085895121,0.0245946856795859,0.144927882048839,-0.979966741986541,-0.132016135381055,0.266370137534524,0.0815736352438271,-0.0111835621666898,-0.0024777308932466,walk
10.48,-0.245829338346453,-0.270243884310488,0.911734978882772,-0.223720062004399,-0.0343955595051047,-0.076888295126575,-0.967261149967631,0.0032463081593412,0.273371522947388,-0.0357304822615758,-0.0361234878181205,0.15457814635803,-0.998034230315932,-0.0307881706284681,-0.0368625712207646,-0.0755742974217434,0.0164386287419113,0.139497617142538,-0.977408611517923,-0.134550079550844,0.270018497833701,0.0782351575503598,-0.01360987616273,-0.0150545779863585,walk
10.485,-0.246077377754458,-0.268348117702779,0.912687260486936,-0.250998630808583,-0.040276522047349,-0.0843177708199583,-0.96775446070868,0.0047165464520579,0.272718146177887,-0.0634458162725836,-0.0309875833545507,0.156586673691413,-0.998361922045056,-0.0293708233548355,-0.0375760602400469,-0.102855675528059,0.0084630774245985,0.134035303791421,-0.974579191591539,-0.136709090381787,0.273501148512403,0.074459076053791,-0.0167927285198667,-0.027862213933568,walk
10.49,-0.246236725828245,-0.266242778206024,0.913957878592162,-0.278372699958234,-0.0459561160006486,-0.0918448917836716,-0.968491016795161,0.0060397146371031,0.271220260190735,-0.0911354747741307,-0.0259688637431336,0.158587023191266,-0.998711024036501,-0.0279341369534457,-0.0388575724772468,-0.130099297893689,0.0007950316614335,0.128567851916933,-0.971854392919573,-0.138394886866662,0.276560244694706,0.0702216564094918,-0.0206997883079405,-0.0407696832984911,walk
10.495,-0.246366711458913,-0.263959163493578,0.915523210864818,-0.30571631872536,-0.0513856401372152,-0.0994355876313184,-0.969480696668642,0.0072074169245107,0.268936561120407,-0.118671401808866,-0.0211438943922961,0.160561815567574,-0.999079579287366,-0.0264698670133253,-0.0407019002728998,-0.157178486918068,-0.0064646884681888,0.123117543039269,-0.969530385949151,-0.139517282003917,0.278999432973029,0.0655091005213053,-0.0252186838938885,-0.0536401575822305,walk
10.5,-0.246538835302227,-0.261483418217864,0.917358437452986,-0.332893541189201,-0.0565218792509354,-0.107064712073453,-0.970715870698569,0.0082185779445066,0.265936152495745,-0.145914708806051,-0.016591942150801,0.162488807773985,-0.999465798178351,-0.0249336366975539,-0.0430442451311694,-0.183954874252289,-0.0132392160556399,0.117704433231444,-0.967746848081477,-0.13999186931031,0.280728757986524,0.0603199321811022,-0.0301879654664011,-0.066337403178996,walk
10.505,-0.246824405430243,-0.258746528852694,0.919435505467971,-0.359730715197017,-0.0613275187865834,-0.114707341083416,-0.972169555658763,0.0090797248653889,0.262293809034032,-0.172691890493508,-0.0123889337520896,0.164339052053383,-0.999868752238823,-0.0232471387194406,-0.0457594233495861,-0.210254940904402,-0.0194710646313387,0.112350760010607,-0.966472360390605,-0.139738488099245,0.281770742407522,0.0546683460514649,-0.0354384013040988,-0.0787297324361244,walk
10.51,-0.247291097248198,-0.25563531160886,0.921724170079813,-0.385987587470476,-0.0657751611259089,-0.122325014897443,-0.973797663831017,0.0098071900894689,0.258083827390779,-0.198773909643749,-0.0086011597534948,0.166076325400312,-1.000285085792,-0.0213089272258202,-0.0486846874710003,-0.235849665025707,-0.0251181584533349,0.107085824658702,-0.96555725253854,-0.13869380533829,0.282225021104923,0.0485866990231758,-0.0408287682316168,-0.0906921349658355,walk
10.515,-0.248012138219142,-0.252024535752132,0.924198864749765,-0.411342177014666,-0.0698480591887769,-0.129851520822969,-0.97554570940979,0.0104302024472543,0.253372138335475,-0.223868284651621,-0.0052823724192598,0.16765816559152,-1.00070292573701,-0.0190123376201412,-0.051662415558526,-0.260447130574269,-0.0301510359028277,0.101948960499595,-0.964834920399351,-0.136836497505421,0.282202713581922,0.0421240326011597,-0.0462620964182743,-0.102109433083484,walk
10.52,-0.249073391707511,-0.247815304516276,0.926844751776745,-0.435400144002055,-0.0735321987268708,-0.137184116409858,-0.977356812932375,0.0109907949421012,0.248214900721238,-0.247629608880004,-0.0024760664699934,0.16903853181068,-1.00109808223073,-0.0162677309144533,-0.0545794500542785,-0.283703335626328,-0.0345515412086209,0.0969891591799549,-0.964225621594878,-0.134205404345349,0.281760201452574,0.0353395048349659,-0.051675494884055,-0.112881478002353,walk
10.525,-0.250558023362034,-0.242963884152659,0.92965134570696,-0.457728997221841,-0.0768037153363482,-0.144186382349693,-0.97917636000995,0.0115381146131623,0.24267222837315,-0.269686704423737,-0.0002200473700717,0.170171734819498,-1.00143637454596,-0.0130258212529138,-0.0573797189953804,-0.305249377922284,-0.0383141670865251,0.0922615140799781,-0.963785749766202,-0.130893350067629,0.280870917214511,0.0282937382745822,-0.057010239361399,-0.122928337594063,walk
10.53,-0.252508368234206,-0.237497199755095,0.932591835797009,-0.477911826248601,-0.0796223211291536,-0.150707926863781,-0.980951870467406,0.0121199365121554,0.236832382298451,-0.289682277618642,0.0014517538320589,0.171017021748101,-1.00168022165171,-0.0092978608104542,-0.0600506504977318,-0.32473087463026,-0.0414499840613383,0.0878210320984266,-0.963677630786889,-0.127022028043785,0.279451619244194,0.0210428249651723,-0.062180827540428,-0.132193589752499,walk
10.535,-0.254891891269005,-0.231516175061404,0.935603511321994,-0.495613277917563,-0.0819371302022384,-0.156619656803914,-0.982631427221273,0.0127763461044206,0.230827303212449,-0.307321548423072,0.002512111967023,0.171543127145561,-1.00179465167331,-0.0051643744659339,-0.0626031688360984,-0.341856037053564,-0.0439902676535198,0.0837141402297865,-0.964089366996331,-0.122718268146013,0.277420001322992,0.0136370583816965,-0.0670605709764074,-0.14064662907962,walk
10.54,-0.257602651809914,-0.225180934523338,0.938590305407466,-0.510641029535325,-0.0837004287237144,-0.161850487980094,-0.984165271333031,0.0135369978283369,0.224822154334303,-0.322420018465932,0.0029452625064588,0.171731855846793,-1.00175109556368,-0.0007618007939619,-0.0650582211444183,-0.35644267705905,-0.0459862060391715,0.0799696332783702,-0.965159153320863,-0.118102721232176,0.274742518770127,0.006122689397124,-0.0714881540760258,-0.148285310347947,walk
10.545,-0.26050312548819,-0.218673200498847,0.941452527909621,-0.522974144688034,-0.0848785039722855,-0.166403189766805,-0.985511837317013,0.0144193442621453,0.218981471526884,-0.334929942210063,0.0027497559321311,0.171579429296872,-1.001531318549,0.003753899124847,-0.0674361495850176,-0.368444110470347,-0.0475038283112647,0.0765932515780135,-0.966940116395502,-0.113284987693892,0.271447877925255,-0.0014560418079561,-0.0752870839647517,-0.155137076798599,walk
10.55,-0.26347680029189,-0.212148938087923,0.944124240756794,-0.532737818522924,-0.0854522407909562,-0.170336689940326,-0.986644907529225,0.015425710039949,0.213435218247335,-0.344928074771312,0.001938233058015,0.171094787574342,-1.00113306590072,0.008249476178024,-0.0697420727513125,-0.37793693443695,-0.0486170072539245,0.0735696584945575,-0.969407398850482,-0.108354329572909,0.267611248760719,-0.0090557163861302,-0.078286184939655,-0.161254772132304,walk
10.555,-0.266452744917644,-0.205706071762417,0.946590130566794,-0.540134524184644,-0.085410252810014,-0.173724804501878,-0.987556893593547,0.0165402491479091,0.208268613972634,-0.352568789147347,0.0005361764779047,0.17029546335121,-1.00057546453283,0.0126386787741894,-0.0719487568587003,-0.385074771101975,-0.0494028525560076,0.0708712235050259,-0.972481343640522,-0.103361482364081,0.263334001191746,-0.0166324225268111,-0.0803336833934665,-0.166705723210262,walk
10.56,-0.269389097161531,-0.199382829331217,0.948870670456173,-0.545366337724458,-0.0847447651294044,-0.176615889487327,-0.98825622437415,0.0177286185098753,0.203537844603952,-0.358027041348374,-0.0014174474123738,0.169202825663155,-0.99990035213005,0.0168782142731199,-0.0739867835799552,-0.390032040696632,-0.0499415331148322,0.0684687900806709,-0.976033628361618,-0.0982976983302325,0.258741934438828,-0.0241384904211858,-0.0813062040784737,-0.171556657364171,walk
10.565,-0.272237839639028,-0.193183871932028,0.950989892670579,-0.548582546526361,-0.0834579423665648,-0.179012866455926,-0.988761455643421,0.0189425666191449,0.199291714016007,-0.361457965873698,-0.0038673879026564,0.16783850601398,-0.99916655267033,0.0209441456312742,-0.0757542642636486,-0.392964065142478,-0.0503178310941127,0.0663390827099252,-0.979870151058321,-0.0930875038117571,0.254000636227776,-0.0315168352994735,-0.0811200825692062,-0.175859344869734,walk
10.57,-0.274925020902701,-0.187116198997015,0.952950786641292,-0.54986819042986,-0.081575911419396,-0.180877271926676,-0.989095878660733,0.0201291599295935,0.195579121070722,-0.362986828019347,-0.0067405756746876,0.166222922541766,-0.998437387933049,0.0248079890271574,-0.0771474835860962,-0.393996989757624,-0.0506193077463001,0.0644660418091371,-0.983724974186253,-0.0876099875185762,0.249320511398077,-0.038695405175994,-0.0797480712522556,-0.179642059021951,walk
10.575,-0.27736263219061,-0.181209348956524,0.954733453924412,-0.549265485362602,-0.0791598387908511,-0.182147325874092,-0.989283547972578,0.0212411900264427,0.192439797137618,-0.3627236662273,-0.0099492928740642,0.164375478813052,-0.997766187286952,0.0284310729528926,-0.0780932407055858,-0.393241959750699,-0.0509297597840667,0.0628372085487304,-0.987302116176454,-0.0817437433010732,0.244927443445174,-0.0455856102299733,-0.0772329357258155,-0.182909681907183,walk
10.58,-0.279481985620642,-0.175504342752146,0.956312635492537,-0.546800789741554,-0.0763052417397265,-0.182754463092602,-0.989345569585973,0.0222442370128195,0.18988927680308,-0.360780549935155,-0.0133983195719027,0.16231474405671,-0.997186223963461,0.0317833170204154,-0.0785585389002625,-0.390811821931855,-0.051322872144265,0.0614393672399886,-0.990354877903602,-0.0754112481731905,0.241008556105323,-0.0520865321378544,-0.0736849270368874,-0.18565094472516,walk
10.585,-0.281264058722461,-0.17002366334096,0.957677902453639,-0.542489504061142,-0.0731289983875062,-0.182627282346384,-0.989296728372414,0.0231186932673129,0.187908988392089,-0.357269085101492,-0.0169922460572385,0.16005681912929,-0.99670792239486,0.0348717798174474,-0.0785364309360723,-0.386818300046387,-0.0518616680438563,0.0602576126366891,-0.992749180375528,-0.0686003885820949,0.237669524117885,-0.0580932886071961,-0.0692597183960889,-0.187848158326336,walk
10.59,-0.282743839690677,-0.16475708578771,0.958837956757004,-0.536316002493785,-0.0697510527632302,-0.181684268956313,-0.989144048769999,0.0238592020052112,0.1864468421077,-0.352276746133183,-0.0206406643330653,0.157611882441652,-0.996320729631197,0.0377497857365056,-0.0780336611424307,-0.38134826265238,-0.0526032074780329,0.0592782062548774,-0.994464767015318,-0.0613594459319014,0.234933200475821,-0.0635062281377606,-0.0641276377196725,-0.189485581815957,walk
10.595,-0.283980230930247,-0.159690698019827,0.959800881272002,-0.528218068697329,-0.066280738569573,-0.179828791268715,-0.988888002118955,0.0244752333771194,0.185429327532805,-0.345848368725649,-0.0242625664585287,0.154981534803811,-0.995994842718131,0.0404857195759645,-0.0770859129537731,-0.374445173415078,-0.0536015401981712,0.0584908105642016,-0.995535873517589,-0.0537784559169112,0.232778096331843,-0.0682382981719806,-0.0584509366258003,-0.190555968390102,walk
10.6,-0.285006851878609,-0.154868456923272,0.960541580450349,-0.518116240061985,-0.0628147275983856,-0.176962238086346,-0.98852539284792,0.0249936290974052,0.184780702990157,-0.338008426465967,-0.0277928034803769,0.152160523201138,-0.995680896409608,0.0431030888739348,-0.0757976111903948,-0.366131037896929,-0.0549017273292274,0.0578841863966588,-0.995980448351843,-0.0459728008040713,0.23118571652842,-0.0722198181477361,-0.0523789623389756,-0.191067481312646,walk
10.605,-0.28579823714169,-0.150434257941905,0.960983866874197,-0.505999976407741,-0.0594454956045068,-0.1730195087997,-0.988052606775667,0.02545938829003,0.184439292353347,-0.328833990201507,-0.0311912609780065,0.149143861604043,-0.995311784943193,0.045537719037959,-0.0743681748613518,-0.356478676487078,-0.0565251167718324,0.0574337513562221,-0.99577376546634,-0.0380724190378348,0.230162390533113,-0.0754013295620795,-0.0460564817225256,-0.191052484468945,walk
10.61,-0.286279433198376,-0.146600280399075,0.961019892760493,-0.492028184749488,-0.0562713505262959,-0.168011259320357,-0.987468537743447,0.0259295055412444,0.184361881873746,-0.318539652637144,-0.0344507528833815,0.145935544142137,-0.994813962073244,0.0476575740237386,-0.0730601276440287,-0.345695975991519,-0.0584556889803692,0.0570875377463695,-0.994875214027275,-0.0302043669915624,0.229730312055523,-0.0777547175823893,-0.0396310541676382,-0.190575231369087,walk
10.615,-0.28637374146081,-0.143543670580596,0.960561148282492,-0.476569573387377,-0.0533987137419264,-0.162045391908404,-0.986777116713154,0.0264595572331396,0.184515384226075,-0.307508129933603,-0.0375968379763663,0.142552470858879,-0.994129231661122,0.04934262881908,-0.0721078744308683,-0.334156481009479,-0.0606396621237493,0.0567618468661241,-0.993263246518459,-0.0224607085316592,0.229913576655699,-0.0792712181711995,-0.0332514198868392,-0.189731250049927,walk
10.62,-0.286052732257252,-0.14130383735167,0.959587103775276,-0.460140941292124,-0.0509345940481325,-0.155310398154951,-0.985989546947955,0.0270903532439938,0.184862825439405,-0.296231049510842,-0.0406765311349811,0.13902028695396,-0.993235650539836,0.0505665175123925,-0.0716274355775637,-0.322341197693658,-0.0630012494915494,0.0563527529135918,-0.990937180675915,-0.0148688814177088,0.230740436324356,-0.0799554229294862,-0.0270623451024876,-0.188633857876039,walk
10.625,-0.2853535734224,-0.139761611747946,0.958157817430096,-0.443278625703519,-0.048974414878526,-0.148029951209814,-0.985125783716957,0.0278437023280668,0.185352956584654,-0.285193436610814,-0.0437414077400736,0.135364211091395,-0.992151969562824,0.0514165693540909,-0.0715986028091134,-0.310724736352414,-0.065464551520954,0.0557576000714409,-0.987895264845127,-0.0073939453285741,0.232253066431455,-0.0798177020581117,-0.0212047701327121,-0.187392803104049,walk
10.63,-0.284356962046592,-0.138715911486967,0.956384778761181,-0.426428322624198,-0.0475916457940972,-0.140418243906151,-0.984214098399236,0.028729407796285,0.185919635356618,-0.274777990058614,-0.0468354039500133,0.131601532734601,-0.990921111121463,0.0520400592056966,-0.0719333140429133,-0.299680963283438,-0.0679675910768375,0.0548929176654582,-0.98412614610381,2.01179371632514e-05,0.234503719811525,-0.0788697243443568,-0.0158211728537185,-0.18609725855216,walk
10.635,-0.283146333104838,-0.137999601586321,0.954382886021081,-0.409918805851996,-0.0468324072614872,-0.132662192736276,-0.983288150682088,0.0297571725694254,0.186491013128492,-0.26524552290646,-0.0499938879522336,0.127740480274156,-0.989583985082455,0.0525596724909731,-0.0725768663697647,-0.289463806616187,-0.0704618655154361,0.0536984671260133,-0.97962859852766,0.0073961177987636,0.237533238572452,-0.0771258974026121,-0.0110583524666886,-0.184812779761971,walk
10.64,-0.281776488301573,-0.137555331749485,0.952234525051594,-0.394021572269703,-0.0467148509883774,-0.124935335060415,-0.982382490893533,0.0309445530815909,0.187003301050773,-0.256791227567321,-0.0532523769624012,0.123785291375369,-0.988161199654592,0.0530162120243889,-0.0735699927193973,-0.28026286122771,-0.0729012608597408,0.0521273561407805,-0.974440015103496,0.0146934624387914,0.241348375130599,-0.0746092261491644,-0.0070620114932991,-0.183592108708215,walk
10.645,-0.280269592068404,-0.137426441876828,0.949984638348227,-0.379042300650233,-0.0472315512693571,-0.117426422395079,-0.981527888503897,0.0323157658073545,0.187412443231146,-0.249627981569995,-0.0566570209410909,0.119743429272117,-0.986653410617446,0.0533723838283878,-0.0750315248058052,-0.272285663551204,-0.0752302233489712,0.0501311282234865,-0.968645677813592,0.0218212442655054,0.245916145361164,-0.0713568290381546,-0.0039654242364433,-0.182490825632203,walk
10.65,-0.278638864184681,-0.13767690309515,0.947664508711935,-0.365373615995836,-0.0483523779064069,-0.110357011264027,-0.980747169562977,0.0338925798101898,0.18769886317176,-0.244034722894931,-0.0602681120701095,0.115629842373165,-0.985057129300614,0.0535703244994986,-0.077075695856167,-0.265805491609325,-0.0773805279381263,0.0476511691046469,-0.962360117104306,0.0286812818564642,0.25117780068968,-0.0674205204946047,-0.0018798965673178,-0.181576759242374,walk
10.655,-0.276924204940675,-0.1383002462027,0.945324325134132,-0.353469302094543,-0.0500248714225522,-0.103971450079784,-0.980051871190915,0.0356837887217526,0.187864237063296,-0.240335462652037,-0.0641529521969272,0.111465251229909,-0.983381995181596,0.0536017237503595,-0.0797215709049384,-0.26114065621749,-0.0792796624704652,0.0446225363225749,-0.955698537043868,0.0352048758458097,0.257067198854709,-0.0628617239857961,-0.0008930453095076,-0.180928027880939,walk
10.66,-0.275218079375829,-0.139176795205165,0.943052137341728,-0.34375540747872,-0.0521701290939169,-0.098502474679152,-0.97944039557186,0.0376798050837208,0.187924032366393,-0.238823127624797,-0.0683719101001545,0.107269347646409,-0.981656876378973,0.0535461016013808,-0.0828514272939094,-0.258579197424615,-0.0808661528438066,0.0409873212279207,-0.948765606935123,0.0413555225449108,0.26351511309811,-0.0577446048474908,-0.001073612275496,-0.180623764273021,walk
10.665,-0.273667115996047,-0.140094126780098,0.940970136223344,-0.336529394991002,-0.0546751935852772,-0.094130060726919,-0.978899053123003,0.0398534974650946,0.187901714940741,-0.239673563051603,-0.0729650752245953,0.103052621748416,-0.979924410605558,0.0535605310126499,-0.0862317970208847,-0.258293704581668,-0.0821042733357394,0.0367092365875291,-0.941668213940294,0.0471042380522768,0.270437436950254,-0.0521323059138296,-0.0024756230988068,-0.180735741983762,walk
10.67,-0.272447059680058,-0.140803641260649,0.939214101022256,-0.331891858364101,-0.0573868823325986,-0.0909506636234457,-0.978408089130873,0.0421631179108838,0.187827078598384,-0.242889043544315,-0.0779444727775563,0.098810645180324,-0.978234219652812,0.0538333564355186,-0.0895710577493933,-0.260285247838376,-0.0829929911911101,0.0317828306715473,-0.934525839817942,0.0524104312061637,0.277725894763986,-0.0460875263650953,-0.005137288639658,-0.181324942038725,walk
10.675,-0.27171874186016,-0.141079809081831,0.93790688170384,-0.329727788341434,-0.0601147991800499,-0.088964915368251,-0.977953400368827,0.0445533982502061,0.187736269099598,-0.248286405369477,-0.0832927327684448,0.0945232231494045,-0.976643567008552,0.0545239246158251,-0.0925824324316643,-0.264371655227363,-0.0835664392188692,0.0262357360526328,-0.927448895619629,0.0572320161817054,0.285259614990605,-0.0396742039418496,-0.0090794526036466,-0.182439872798244,walk
10.68,-0.271582481432423,-0.140762651172389,0.937135943924639,-0.329734299414641,-0.0626492935135649,-0.0880843772281942,-0.97753928335863,0.0469553650176308,0.187671257824335,-0.2555268296712,-0.0889670654473645,0.0901591915602971,-0.975223531405954,0.055710491332717,-0.0950329705038464,-0.270217486351289,-0.0838844947332184,0.0201255150872433,-0.920498541543558,0.0615519831411032,0.292928924976795,-0.0329564669801661,-0.0143126421188617,-0.184111110158459,walk
10.685,-0.272055016047415,-0.139772187332398,0.936944614880861,-0.331480077550136,-0.0647910631853828,-0.0881528719214683,-0.977192955455696,0.0492882077919024,0.187680205761465,-0.264172904048352,-0.0949061727682646,0.0856853693146976,-0.974061400100047,0.0573699349547213,-0.0967634587889425,-0.277391448969778,-0.0840163561783131,0.0135334345860665,-0.913683526266459,0.0653838313492988,0.300638898235372,-0.025995326288677,-0.0208520701936464,-0.186341287071947,walk
10.69,-0.273083876813351,-0.138088646169129,0.937342716236607,-0.334470100250753,-0.0663787714922855,-0.0889727552559093,-0.976955844950994,0.0514642180929272,0.187820281640001,-0.273747261781656,-0.101036019766257,0.0810756067356606,-0.973254234639047,0.0594032471607077,-0.0976696513485265,-0.285425389810262,-0.0840264815626095,0.0065579621588356,-0.907027253052998,0.0687361010989987,0.308274140788546,-0.0188483857486275,-0.0287256740711765,-0.189095769687053,walk
10.695,-0.27458871919699,-0.135707936471396,0.938330855813337,-0.338185258667655,-0.0673005991420203,-0.090324860169224,-0.976867953884048,0.0533935779807953,0.188160307833155,-0.283763941293364,-0.107270346976707,0.0763153714276319,-0.972898558659355,0.0616927568262869,-0.0976558861345036,-0.293845807535525,-0.0839729369101396,-0.0006888757472072,-0.900666659452679,0.0715595993863802,0.315647080742177,-0.0115774793539284,-0.0379601218780841,-0.192299176296343,walk
10.7,-0.27649958267119,-0.132601410315309,0.939921792444189,-0.342082897178875,-0.067487311410159,-0.0919772611437236,-0.976957708683882,0.0549853404251911,0.188778682833375,-0.293719764151361,-0.113505285286402,0.0714002302251003,-0.973084300314976,0.0641521521148091,-0.0965949136552046,-0.302165194663518,-0.0839197599170911,-0.0080805172231067,-0.894906937222762,0.0737210204376312,0.322471870528757,-0.0042634573937056,-0.0485462087673509,-0.195837016498101,walk
10.705,-0.278767924695083,-0.128710307624379,0.942143718952628,-0.345574035349568,-0.0668973684171715,-0.0936884474394783,-0.977243857016048,0.056145252075886,0.189755434975468,-0.30306161478354,-0.119612269319188,0.0663308704288961,-0.973894467554816,0.0667353667351195,-0.0943270990586468,-0.309849232682825,-0.083954529482253,-0.0154718421169854,-0.890194975703585,0.0750235550447133,0.328382693006677,0.0029781274473764,-0.0604007738271996,-0.199557276811643,walk
10.71,-0.281351242281813,-0.12398091774086,0.945024139022444,-0.348010940590579,-0.0655074801621504,-0.0952145024613717,-0.977744915992213,0.0567753684323203,0.191161447914157,-0.311163642029936,-0.12543548142446,0.061109359844023,-0.975404450348698,0.0694038446098094,-0.0907041098841044,-0.31629390906527,-0.0841993576861206,-0.0226964701269036,-0.887042644976661,0.075257158823083,0.332977515434828,0.009987433693777,-0.0733419389514897,-0.203268652856586,walk
10.715,-0.284190329992891,-0.118417841623407,0.948565583253437,-0.348707890917721,-0.0633144517381247,-0.0963227239145315,-0.978486622605842,0.0567799639350459,0.193048581894339,-0.31734034649039,-0.130797632703109,0.0557395958858716,-0.977674946791577,0.0720816218178308,-0.0856518269846039,-0.320838381480674,-0.0848095941918032,-0.0295693964196929,-0.885953776032901,0.0742464251344213,0.335858497195368,0.0165603293253337,-0.0870813457542956,-0.206737819729941,walk
10.72,-0.287193677463866,-0.112126388229122,0.95272433210869,-0.34699275674354,-0.0603456276749354,-0.096805328936442,-0.979501966768624,0.0560774789084435,0.195443104423121,-0.320897990877184,-0.135513529536252,0.0502315246162924,-0.980739352543136,0.074626624882711,-0.0792203500006225,-0.322815810278645,-0.0859621445069531,-0.0358961315375791,-0.887369279946789,0.0718795153727031,0.336665245160508,0.0224571310910482,-0.101227717543746,-0.209691167751537,walk
10.725,-0.290231212887955,-0.105326838827664,0.957397316578172,-0.342274901217864,-0.0566729359328055,-0.0964888508396471,-0.980824461665489,0.0546142557854137,0.198343915200571,-0.321210774668907,-0.139408028709974,0.0446069993662415,-0.984591818881496,0.0768280931572861,-0.0716008550050527,-0.321628483583681,-0.0878373078853694,-0.0414869859700851,-0.89160567329279,0.0681218960812088,0.335118738374345,0.0274166447441743,-0.11530016517357,-0.211823745919145,walk
10.73,-0.293140939213837,-0.0983317631525076,0.962422306700818,-0.334114821495311,-0.0524257888191624,-0.0952420293029537,-0.982476630029895,0.0523762042625794,0.201724795189156,-0.317801986129017,-0.142333882158123,0.0389050269271842,-0.989180420462721,0.0784337515705326,-0.063100848463191,-0.316827517825252,-0.0905971453237409,-0.0461735840507938,-0.898780660192792,0.0630225813228076,0.331078748407459,0.0311716245761197,-0.128756861593712,-0.212813738164752,walk
10.735,-0.295756168777278,-0.0914874791745486,0.967595953154895,-0.322274713116338,-0.0477956743197117,-0.0929830434163642,-0.984455281384403,0.0493974306223891,0.205536043556741,-0.310403482881903,-0.144184735441982,0.0331836459460435,-0.994403976004976,0.0792082931715242,-0.0540848755407648,-0.308170678267409,-0.0943653117233357,-0.0498232760327107,-0.90876284538283,0.0567153736435243,0.32458738492904,0.033463485701834,-0.141040445699704,-0.212340079192769,walk
10.74,-0.297946944209733,-0.0851043188504147,0.972702548697015,-0.306727691455882,-0.0430247338259906,-0.0896804729119192,-0.986717471571786,0.0457665745886211,0.209701159476147,-0.298969940084078,-0.144900697221468,0.0275158193180686,-1.00010816817534,0.0790043742564707,-0.0449119219207804,-0.295634905166589,-0.0992149933414523,-0.0523476589266528,-0.921182512020225,0.0494160497798053,0.315870580415169,0.0340571965917051,-0.151629379090916,-0.210103474730679,walk
10.745,-0.299650307481895,-0.0794145494531895,0.977535306542228,-0.287626860864405,-0.0383776670710164,-0.0853461270920222,-0.989172856777945,0.0416308811358552,0.214111139719752,-0.283650288815013,-0.144468440796835,0.0219795293610092,-1.00608005770721,0.0778080098932625,-0.0359067901011811,-0.27938596035543,-0.105167649791101,-0.0537054584898513,-0.935494538345421,0.0414169332516693,0.30530105680135,0.0327588708166729,-0.160079561309221,-0.205852660759652,walk
10.75,-0.3008687306549,-0.0745761667971265,0.981899105934643,-0.265264642294797,-0.0341059861277971,-0.0800279905646535,-0.991685791085804,0.0371959226286683,0.218624401090141,-0.264746899517876,-0.142920372491314,0.0166458663604408,-1.01204645165618,0.0757339023482059,-0.0273731536400051,-0.259735703013113,-0.112198753816783,-0.0539039919089102,-0.951047509655358,0.0330793919099571,0.293353582660873,0.0294367178943692,-0.166048421750031,-0.199415577003174,walk
10.755,-0.301642943827103,-0.0707026462315224,0.985603450336054,-0.240053993702479,-0.0304167775569242,-0.0738126737882642,-0.994086346582569,0.0327175126210656,0.223076217503435,-0.242693778453345,-0.140335365599539,0.0115697763247261,-1.01768412767187,0.0729831919769446,-0.0196191778621218,-0.23711841675064,-0.120244119958698,-0.0530028738689857,-0.967120807256173,0.0248240943654753,0.280578968829955,0.0240426250030608,-0.16930626946895,-0.190730607483418,walk
10.76,-0.302027308117486,-0.0678786417013521,0.988466139259711,-0.212533222034599,-0.0274525453661023,-0.0668349372861657,-0.996187049920796,0.0284833635905184,0.227291982159832,-0.218057421586731,-0.136839536725072,0.0067855966897885,-1.02264582699776,0.0698014493986993,-0.0129572933716113,-0.212090293892075,-0.129203364045742,-0.0511188456428468,-0.982930200826023,0.0171185543695707,0.267596545903877,0.0166300098913644,-0.169745407672867,-0.17986975693075,walk
10.765,-0.302089435191883,-0.0661384795146751,0.990338798608849,-0.183361226640116,-0.0252804496387851,-0.0592777899325461,-0.99780254455235,0.0247850150238538,0.231095779993748,-0.19153207115539,-0.132603270107074,0.0023058117303296,-1.02659875231481,0.0664645496358052,-0.0076638034069219,-0.185324443900842,-0.138942417964715,-0.0484257355398184,-0.997631949815108,0.0104612304230904,0.2550848843221,0.0073646783690673,-0.167392918987325,-0.16704604583648,walk
10.77,-0.301924901337751,-0.0654268671063417,0.991141593109796,-0.153266811828074,-0.0238867388706693,-0.0513476300119695,-0.998771056474462,0.0218841095235006,0.234314332133794,-0.163896564626865,-0.127831934894205,-0.0018799108745154,-1.0292667080074,0.0632814157527722,-0.0039222519878961,-0.15756903386519,-0.149299390619569,-0.0451436678320768,-1.01035433332555,0.0053612825590031,0.243751629502249,-0.003472563582831,-0.162424573890689,-0.152601008695728,walk
10.775,-0.301657378006015,-0.0655860684018722,0.990880926437396,-0.122955293323542,-0.0231772850686733,-0.0432298299728505,-0.998976165836603,0.0199800224910999,0.236785023264917,-0.135932466157382,-0.122751481480493,-0.0058059675389521,-1.03046504569316,0.0605782244055299,-0.0017919480223804,-0.129568116858689,-0.160095067885652,-0.0415180147414269,-1.02026753953607,0.0023113438433063,0.234275940756064,-0.0154919880280484,-0.155171837896611,-0.136973073254628,walk
10.78,-0.30141040970841,-0.0663916426147195,0.989637101057659,-0.0930170606995473,-0.0229898156832886,-0.0350499768948054,-0.998364542090939,0.0191866209401045,0.238372641450636,-0.108338949285453,-0.117592937697248,-0.0095300336239245,-1.03011966139123,0.0586488775478637,-0.0012219049824322,-0.101979937378133,-0.171145306464978,-0.0377953827436067,-1.02668281597227,0.0017481081419714,0.227231047789742,-0.028210583740458,-0.146112760309882,-0.120652454391519,walk
10.785,-0.301268024496744,-0.0676184994184101,0.987533005088783,-0.0638818214363095,-0.0231199750487363,-0.0268623356078445,-0.996954078384844,0.0195233284461767,0.238988446578657,-0.0816818832561783,-0.112579739460234,-0.0131281823713392,-1.02826683437889,0.0576927575593984,-0.0020960827898737,-0.0753293300860985,-0.182271594457617,-0.0342047312036743,-1.02915146698562,0.0039983256202685,0.223008016968455,-0.041078159531058,-0.135841260030405,-0.104131911840359,walk
10.79,-0.301249513642774,-0.0691032039908349,0.984703803487271,-0.0358294550295191,-0.0233551214840444,-0.0186670303966341,-0.994829572602968,0.0209205337093778,0.238602893764158,-0.0563897117254944,-0.107919871812865,-0.0166862448263182,-1.02503735445136,0.0577702343977372,-0.0042807190462245,-0.050006220770554,-0.193307109412275,-0.0309473892253215,-1.02752740594096,0.0092186052044642,0.221766067761462,-0.053513331720565,-0.125017979803646,-0.0878634918029157,walk
10.795,-0.301307916001917,-0.0707789280469006,0.981279077502689,-0.0090407026034702,-0.0235057274786169,-0.0104429793392889,-0.992127621598942,0.0232349946246106,0.237249961021352,-0.0327855022110029,-0.103802260413043,-0.020289385597459,-1.0206324777026,0.0587909630639176,-0.0076519755650302,-0.0262994407241763,-0.204097617243229,-0.0281950706376393,-1.02197921770721,0.0173466086594628,0.22342016946507,-0.0649462453845818,-0.114313260793536,-0.0722280598423732,walk
10.8,-0.301347216433051,-0.0726760001744257,0.977378160316466,0.0163385069612328,-0.0234269617201228,-0.0021818214823138,-0.989016159713703,0.0262703434685683,0.235023956939503,-0.0111344518350466,-0.100394992023058,-0.0240121253777147,-1.01529864513739,0.0605345585820106,-0.0120999300311096,-0.0044452816439404,-0.214499476215414,-0.0260924990039941,-1.01296911672159,0.0280785550334983,0.227655687481457,-0.0748629784399012,-0.10435181689281,-0.0575191165438965,walk
10.805,-0.301249234689688,-0.074893594379183,0.973114128849599,0.04014278712937,-0.0230282760635793,0.0060876903384711,-0.985675181719537,0.0297998544728016,0.232067752130643,0.0083135061313172,-0.0978434304392572,-0.0279106834464856,-1.00930485186219,0.0626953876370299,-0.0175192821990813,0.0153293345687018,-0.224378473423711,-0.0247610095046125,-1.00121756064134,0.0408807540635219,0.233957709989471,-0.08284639898651,-0.0956622438333991,-0.0439388468809761,walk
10.81,-0.300899754143444,-0.0775551178517828,0.96859979898309,0.0621574508410067,-0.0222731008228684,0.0142890984057974,-0.982282388833446,0.0335893808496821,0.228554003642957,0.0252993636716536,-0.096268187848405,-0.0320187984326692,-1.00292465989994,0.064938405457829,-0.0237969475122961,0.0327822716221402,-0.23361152254296,-0.0243007080484879,-0.987643014468868,0.055041689761691,0.241660962220322,-0.0886082318057008,-0.0886329729165587,-0.031603325198283,walk
10.815,-0.300204641773639,-0.0807622329167029,0.963949801383394,0.0821151998064471,-0.0211732451549383,0.022298581388194,-0.979002947193562,0.0374177308094227,0.224666405708369,0.0395529010022455,-0.0957633128523198,-0.0363471858818758,-0.996423359141479,0.0669514825989724,-0.0307988591375235,0.047654020390753,-0.242090504750407,-0.0247903567292468,-0.973255276429484,0.0697635869120785,0.250033318471443,-0.0920062263089775,-0.0834827890332492,-0.020553391497671,walk
10.82,-0.299096162874381,-0.0845611817167753,0.959277867514746,0.0997126881419499,-0.0197822218974587,0.0299506203385366,-0.975980607757751,0.0410927617150953,0.220586072062117,0.0508085170696034,-0.0963942413263279,-0.040885965493999,-0.990047689448388,0.0684845596086215,-0.0383586590128924,0.0596837094472377,-0.249726310353068,-0.0262855398045206,-0.959019124299171,0.084267020302313,0.258379824910401,-0.0930420104802831,-0.0802574156005437,-0.0107681015121937,walk
10.825,-0.297539112421438,-0.0889278841909419,0.954693951671778,0.114639459955894,-0.0181881264605875,0.0370484033975503,-0.973329336685423,0.0444631858437932,0.216481230009607,0.0588305157260591,-0.0981955526665976,-0.0456091757975465,-0.984014542398935,0.0693742976595586,-0.0462751670415358,0.0686348369007832,-0.256451826126224,-0.0288165659054502,-0.945747701160956,0.0978670211216875,0.266124529639969,-0.0918419507190376,-0.0788533325156212,-0.0021798856412528,walk
10.83,-0.295541406649224,-0.0937669493443012,0.950305104530937,0.126615936283706,-0.0165035577300208,0.0433835868303991,-0.971127311008235,0.0474251130027194,0.2124982721001,0.0634410148878645,-0.101169731093413,-0.0504806967357899,-0.978500091512584,0.069556746050749,-0.0543186055700548,0.0743239395043743,-0.262224314657774,-0.0323872761901406,-0.934065007943926,0.110004834932266,0.272840895553118,-0.088629640422388,-0.0790547699298193,0.0053080569656925,walk
10.835,-0.29316008761431,-0.0989153967574954,0.946217769862995,0.135438512102261,-0.0148517670478215,0.0487658839387212,-0.969415346525939,0.0499207890317057,0.208758155669161,0.0645487445189878,-0.10528727206278,-0.0554608756455619,-0.973635812943382,0.0690677106454366,-0.0622349165897342,0.076650324848054,-0.267028652032777,-0.0369745343908465,-0.924411861206863,0.120257806658404,0.278247252186957,-0.0836976294997431,-0.0805685952536955,0.011804059995168,walk
10.84,-0.290492744240525,-0.104149700476463,0.942536289930752,0.141025336313407,-0.0133527937818304,0.0530536955800081,-0.968199891683738,0.0519297864853542,0.205361151702649,0.0621783283082225,-0.110486488721393,-0.0605127703749471,-0.969514075258258,0.0680287009240807,-0.0697433607398624,0.075626177919135,-0.270881732359614,-0.0425274322634137,-0.917046078229813,0.128349304303604,0.282201900334211,-0.0773804630977334,-0.0830552338460523,0.0174149058584708,walk
10.845,-0.28765948554541,-0.109203260619859,0.939357133446747,0.143451847972971,-0.0121140702641402,0.0561751461145983,-0.967459450428185,0.0534581835024895,0.20239310255737,0.0564951154604776,-0.116672021847382,-0.0656068823295221,-0.96619705425712,0.0666211224908307,-0.0765404153831596,0.0714019699491845,-0.273835736312358,-0.0489663382402672,-0.912030527265997,0.13414843033099,0.284704309131733,-0.0700292352507344,-0.0861623885025264,0.0222400787720643,walk
10.85,-0.284789820070491,-0.113798387174622,0.936763220339507,0.142966458941928,-0.0112252750755465,0.0581360977460759,-0.967153029600816,0.0545317689020793,0.199923395848107,0.0478165883407116,-0.123714517701628,-0.0707239537162857,-0.963720528022971,0.0650566477357391,-0.0823252183873426,0.0642783687779862,-0.275976513986297,-0.0561835753150358,-0.909242051220218,0.137639362297286,0.285882042705613,-0.0619906638673325,-0.0895620681051009,0.0263698848597532,walk
10.855,-0.282019336328954,-0.117685429665816,0.934821009761148,0.139982249963428,-0.0107532395082507,0.0590177868521568,-0.967228391744173,0.055193314956023,0.197996789728906,0.0366035188931866,-0.131455347479639,-0.0758561917517371,-0.962091490974992,0.0635502235044383,-0.086839947448539,0.0546981194676704,-0.277415206497535,-0.0640476686349489,-0.90841932866483,0.138869479732548,0.285953148796621,-0.0535946528407468,-0.0929822172240037,0.029881171748012,walk
10.86,-0.279488388933055,-0.120674259744314,0.933579454712517,0.135046610336969,-0.0107342391435747,0.0589662668251746,-0.967627998709569,0.0554984373025223,0.196631399474178,0.023431775825103,-0.139716672560668,-0.0810073986291696,-0.961286233986483,0.0622973134386542,-0.0899002153764232,0.043218866120231,-0.27827595105766,-0.0724112350587428,-0.909231823700211,0.137912584144496,0.285177315893255,-0.0451501515874702,-0.0962244111246866,0.032829031932958,walk
10.865,-0.277335911517177,-0.122648075261777,0.933070090916596,0.128796537013875,-0.0111653538132016,0.0581742155177815,-0.968293329442649,0.0555064351575809,0.195826902709286,0.0089537776587826,-0.14831277496071,-0.0861920970326463,-0.961254794067934,0.0614554127563277,-0.0914017690210626,0.0304756272247114,-0.278685859668475,-0.0811202149126894,-0.911341946257751,0.13486994773203,0.283813585051756,-0.0369442880916798,-0.0991657847791914,0.0352401182892007,walk
10.87,-0.275690009458158,-0.123562292054351,0.933308230073918,0.121910649724981,-0.0119988070253424,0.0568581640738531,-0.969170368672725,0.0552695698716269,0.195571675127541,-0.0061396953033112,-0.15705912698407,-0.0914335274779749,-0.961930244651207,0.0611312642314905,-0.0913161036760115,0.0171432652749631,-0.278771018947875,-0.0900216037472136,-0.914446833485119,0.12989306889086,0.282090988966017,-0.0292398733704697,-0.101748633473938,0.0371143930360859,walk
10.875,-0.274659113749515,-0.123438778367506,0.934293342989462,0.115066847672655,-0.0131423465413782,0.0552380337673442,-0.970216817920793,0.0548276831555336,0.195837618225165,-0.0211528744960268,-0.165780094028885,-0.0967606312585694,-0.963236476552519,0.0613755691785801,-0.0896941166300862,0.0039033126461631,-0.278656012814709,-0.0989687306222913,-0.918299248730748,0.123195027538377,0.280190893270314,-0.022270846556047,-0.103962711453001,0.0384355591053217,walk
10.88,-0.274323011751564,-0.1223610212315,0.936005752476636,0.108908940732285,-0.0144669232388975,0.0535254435735487,-0.971407627987297,0.05421101670627,0.196566663855779,-0.0354161111195714,-0.174318290467867,-0.102204530184843,-0.965090931360934,0.0621855937112593,-0.0866774278029684,-0.008587158688037,-0.278461304819279,-0.107825303926469,-0.922707254959491,0.115038205421409,0.278242826356459,-0.0162383211830925,-0.105825433308167,0.039183641891113,walk
10.885,-0.274721660109121,-0.120467282835084,0.938399612615713,0.104021814994518,-0.0158214744659009,0.0519223276384976,-0.972734533539074,0.0534477264714286,0.197663868912705,-0.0483177160784809,-0.182545977958276,-0.107795203336465,-0.967404267325085,0.0635143853806508,-0.082498600764379,-0.0197273264852507,-0.278295461365998,-0.116469731354864,-0.927509667385681,0.105712673427566,0.276339213974936,-0.0113085306297577,-0.10736619330483,0.0393428094586775,walk
10.89,-0.275844403348881,-0.117937161293123,0.941396258975457,0.100913898762504,-0.0170526810713324,0.0506257931944949,-0.974198018899025,0.0525698753025267,0.199008071949641,-0.0593347848828157,-0.19037500376987,-0.113558951742424,-0.970080537438715,0.0652836788852692,-0.0774549577158914,-0.0290032101509955,-0.278244181133501,-0.124799912551708,-0.93253388456635,0.0955218596521189,0.274566778266756,-0.0076112334599283,-0.108621151006094,0.0389020933933075,walk
10.895,-0.277625709008941,-0.114972101859182,0.944883026321074,0.100004998697942,-0.0180247264973467,0.0498315259874462,-0.975794572426505,0.0516137314777047,0.200477826007651,-0.0680574747048289,-0.197760629187005,-0.119516913001528,-0.973019440640669,0.0673962883325238,-0.0718602457849693,-0.0360116319667151,-0.278361343364185,-0.132737430992285,-0.937557076901835,0.0847788301431146,0.273039116521411,-0.0052369037942094,-0.109640490212802,0.0378514767837312,walk
10.9,-0.279949987742416,-0.111775390821797,0.948719213679361,0.1016167564993,-0.0186333413702574,0.049728846923359,-0.977505855677937,0.0506150759829949,0.201977980494279,-0.074202018764208,-0.204697113059451,-0.12568444160217,-0.9761202640025,0.0697445945980344,-0.0659965444215523,-0.0404730252098562,-0.27866653197816,-0.140229834310821,-0.942291335150707,0.0738077219998014,0.27191210641979,-0.0042327641417105,-0.110503600561422,0.0361780837316164,walk
10.905,-0.282662851440246,-0.108537478352644,0.952746674822258,0.105964654345038,-0.0188124025872166,0.0504873097362271,-0.979296053977154,0.0496042204047386,0.203450402554078,-0.0776123435091032,-0.211207394925073,-0.132070841569139,-0.979286012788099,0.0722153601459818,-0.0600908574216709,-0.0422330910274051,-0.279149004230354,-0.147250496796134,-0.946403904428107,0.0629416032307829,0.27137076751895,-0.0045990597372832,-0.111334296119353,0.0338660379382186,walk
10.91,-0.285586760644316,-0.105428183678778,0.956802018692513,0.113153655319249,-0.0185359116037736,0.0522419934459859,-0.981117624091667,0.0486049183862697,0.204864702085388,-0.0782541058494907,-0.217332265218258,-0.13867909416019,-0.982425388244798,0.0746951889402824,-0.0543225142172199,-0.0412570968091496,-0.279774400041172,-0.153796670408865,-0.94957847075635,0.0525060760239131,0.271584221303005,-0.006287885019373,-0.112307146066329,0.0309000598185307,walk
10.915,-0.288541668199036,-0.102592350634728,0.960729364454292,0.123180384916146,-0.0178172245534193,0.0550842144014168,-0.982919156835633,0.0476371942915986,0.206200833630464,-0.0762041969911345,-0.223123221220095,-0.145505934420268,-0.985451237035125,0.0770811881534181,-0.0488436610631075,-0.0376196843186683,-0.28049184870952,-0.159886811327709,-0.951608094426269,0.0427847275314709,0.272639759152671,-0.0092076768511873,-0.113635511282807,0.027269819064974,walk
10.92,-0.291367919772624,-0.100145166235069,0.964392533027769,0.135942869429222,-0.0167034873195922,0.0590579727849174,-0.984649584829407,0.0467205931357716,0.207438738594756,-0.0716350635148726,-0.228639091925856,-0.15254313782634,-0.98827768577984,0.0792948866611367,-0.0437900571676643,-0.0314893494665712,-0.281242656517374,-0.165557838500077,-0.95247989174715,0.0339808254733807,0.274486284627457,-0.0132352913965065,-0.11553728224176,0.022971748737883,walk
10.925,-0.293942866617168,-0.0981677822884688,0.967683888452412,0.151256041576777,-0.0152638572915892,0.0641585310920465,-0.986259345128559,0.0458740900821779,0.208559729890069,-0.0647927463126458,-0.233943838952792,-0.159780135507575,-0.99082097272369,0.0812894286488201,-0.0392762347365215,-0.0231065057837006,-0.281971801058122,-0.170862156615017,-0.95240107133604,0.0262020188788867,0.276919546056502,-0.0182336334039638,-0.118186562281978,0.0180082398780804,walk
10.93,-0.296184809325917,-0.0967064579299139,0.97052779762881,0.168868908082758,-0.0135751339273844,0.0703310040825733,-0.987702407404998,0.0451120285053826,0.209554197979695,-0.0559715700157581,-0.239103629634114,-0.16720652509384,-0.993006787131513,0.0830426176120204,-0.0353842482796809,-0.012758334338396,-0.282640181256714,-0.175863781106912,-0.95174437467396,0.0194834031485385,0.279620774159539,-0.024069060409256,-0.12166887493114,0.0123883951570847,walk
10.935,-0.298047219864722,-0.0957755786199457,0.972879748537313,0.188480352646236,-0.0117106426864951,0.0774708103217188,-0.988939813259845,0.0444395252527466,0.21042933170689,-0.0454907987240296,-0.244183025806278,-0.174812720804594,-0.994781190557244,0.0845420101659211,-0.0321532783862935,-0.000756007587586,-0.283233482729843,-0.180633180904296,-0.950933025758531,0.0138372282693069,0.282235665375593,-0.0306222181173397,-0.125957366982185,0.0061342606604208,walk
10.94,-0.29951114576076,-0.0953617989267146,0.974723599337501,0.209755130865717,-0.0097349143391743,0.0854302548244299,-0.989941958864871,0.0438510754203199,0.21121439672549,-0.0336756268396781,-0.24924056565742,-0.182588602228751,-0.996119033849992,0.0857752843639397,-0.0295705786957614,0.0125833855455881,-0.283765008744014,-0.185241286674201,-0.950316364948092,0.0093002344280275,0.284462249568403,-0.0377888024417207,-0.130919445117192,-0.000709153302308,walk
10.945,-0.300579784583763,-0.0954280012808717,0.97606803777864,0.232343316555228,-0.0077025499880224,0.0940329474395771,-0.990688420692923,0.0433320065199886,0.211962544190139,-0.0208409845965743,-0.254323749914523,-0.190521585991612,-0.997026042218862,0.0867299003422016,-0.0275666399822694,0.0269520423562576,-0.284273477113052,-0.189753664740017,-0.950093762699848,0.0059554455951841,0.286108845157662,-0.045471634799636,-0.136349632308123,-0.008065420327011,walk
10.95,-0.301273679036439,-0.0959191346154662,0.976941573996488,0.255902023063125,-0.0056588786177495,0.103091942330589,-0.991167127536133,0.0428600297200928,0.212747244931513,-0.0072768031511655,-0.259464001736889,-0.198595302477992,-0.997534860825112,0.0873947755136775,-0.0260220616955013,0.042065382633724,-0.284819140767962,-0.194225664777519,-0.950311601101255,0.0039243622093673,0.287101604864629,-0.0535696750687124,-0.142011821878321,-0.0158223976582026,walk
10.955,-0.301624120682543,-0.0967731373545294,0.977384917663481,0.280113395747015,-0.0036415812198141,0.112425163450608,-0.991374081608429,0.0424068998082464,0.213652847692116,0.006763195826254,-0.264673210654056,-0.206788883468267,-0.997696855689922,0.0877578749823271,-0.0247891413495151,0.057672716941514,-0.285480247458989,-0.19869905465198,-0.950905870327673,0.0033386836266027,0.287457530952933,-0.0619700228427588,-0.147673930713201,-0.0238309954322564,walk
10.96,-0.301664589325791,-0.0979379984928661,0.977440270843362,0.304692863827913,-0.0016833169678735,0.121865041848306,-0.991312137445142,0.0419429838098214,0.214763051214114,0.0210641541700986,-0.269943519654011,-0.215076513386864,-0.997570689335074,0.0878017829038765,-0.0237213641449128,0.0735596843477582,-0.286348549813232,-0.203201042245474,-0.951747032178768,0.0043006040227416,0.287253636281205,-0.0705458560763835,-0.153130079099911,-0.03190754480983,walk
10.965,-0.301421968834217,-0.099391081609111,0.977139206343499,0.329384973915816,0.000185122455712,0.131262846887079,-0.990987399548422,0.0414447430045631,0.216153630057922,0.0354397322565385,-0.275250645679632,-0.223427478358352,-0.997209478842043,0.0875016300852556,-0.0226989743010966,0.0895382156313068,-0.287521872290605,-0.207746995897816,-0.9526760037162,0.0068398935230876,0.28660242310106,-0.0791603945559195,-0.158214272537847,-0.0398437858580141,walk
10.97,-0.300910582587839,-0.101152269418181,0.976494029156761,0.353948105329204,0.001931999077546,0.140488247222709,-0.990404793857608,0.0408999723086399,0.21789325837556,0.0497095455248608,-0.280559225067971,-0.23180715669177,-0.996651332560944,0.0868251367626837,-0.021640848264277,0.105424893083159,-0.289094973694158,-0.212347085764646,-0.953541802829373,0.0108855551185644,0.285626719292204,-0.0876756611846161,-0.162806819335299,-0.0474262048188881,walk
10.975,-0.300132961417226,-0.103282800605368,0.975498528994381,0.378133637808751,0.003522871684934,0.149424608169684,-0.989565719377103,0.040305535226767,0.220050451511888,0.0636721059543012,-0.285827694827343,-0.240178649491523,-0.995918394098062,0.0857325270746855,-0.0204982410499225,0.121015119796738,-0.291152796050849,-0.217014637496186,-0.954232142595056,0.0162737429617009,0.284437903918061,-0.095962717856644,-0.166831713716687,-0.054458920757146,walk
10.98,-0.299089728930173,-0.105866322785471,0.974139995923124,0.401669448046163,0.004920825203537,0.15796335088876,-0.988468616341864,0.0396577655181154,0.222699723949932,0.077085307609709,-0.291010568512996,-0.248504199589323,-0.995024490622378,0.0841793199820173,-0.0192322409079869,0.136064552509566,-0.29376909569652,-0.221772400034574,-0.954678875492777,0.022791380801089,0.283128814445028,-0.103908036022256,-0.170248334598112,-0.0607803361343214,walk
10.985,-0.297795743730159,-0.108974605402021,0.972417595798976,0.424260080793914,0.0060897114582372,0.166002858135276,-0.987111275439311,0.0389406616059729,0.225919796870541,0.0896670954860622,-0.296057230614724,-0.256746292145526,-0.993986087603456,0.0821288275391945,-0.0177833728959836,0.150290012982401,-0.297010795170723,-0.226653508671334,-0.954849219267876,0.0302258846173872,0.281774860422274,-0.111413126753517,-0.173043535364935,-0.0662675397388729,walk
10.99,-0.296293660233753,-0.112628777490363,0.970357813036433,0.445612590041195,0.0069998145904079,0.173455142808329,-0.985494079214879,0.038118361194134,0.229781977421403,0.101124534132204,-0.3009078845889,-0.264869398990486,-0.992830805197622,0.0795739162046206,-0.0160474735175924,0.163398067702335,-0.300947030845133,-0.231696050872552,-0.954746870231679,0.0383921663293705,0.280428523117104,-0.118390167857041,-0.175224049023315,-0.0708291922460686,walk
10.995,-0.294655582025481,-0.116774895587208,0.968018999045547,0.465484907594473,0.0076328244025783,0.180258722328443,-0.983624134816652,0.0371368112464561,0.234333750046974,0.111206647095687,-0.305488726963532,-0.272843027416678,-0.991600707402671,0.0765559582405248,-0.0138722080480806,0.17513694331762,-0.305660109431025,-0.236933017369464,-0.954417668101181,0.0471337060451437,0.279111969206083,-0.12475815335728,-0.176806234152951,-0.0743926391106694,walk
11.0,-0.292970950746044,-0.121288157018478,0.96548390672361,0.483738894050482,0.0079827539102696,0.186392492609128,-0.98151985397779,0.0359347707051507,0.239585421253617,0.119760925712314,-0.309709205381336,-0.280645424421117,-0.990350446044418,0.0731683329227108,-0.0110786768157776,0.185352134936519,-0.311253019871208,-0.242381967723204,-0.95393870386495,0.0563107956338102,0.27782263112761,-0.130440817089406,-0.177806419533099,-0.076893406982764,walk
11.005,-0.291327134070805,-0.12600339268252,0.962845939908201,0.500375697288727,0.0080524653709716,0.191883616548513,-0.979215215647727,0.0344583749127388,0.245504674768661,0.126770373998293,-0.313463424078989,-0.288266693899798,-0.989142263658291,0.069542046902654,-0.0074992162635544,0.194022992301013,-0.317848793493473,-0.248038912092071,-0.953395061184967,0.0657861202564434,0.276548564429566,-0.135364978588606,-0.17823809745725,-0.0782735725741417,walk
11.01,-0.289790056462886,-0.130758712870828,0.960195124245628,0.515538659514533,0.0078483056377624,0.196802486056293,-0.976763287000324,0.032672501509017,0.252018599873452,0.132358878754157,-0.316636025389037,-0.295710433259641,-0.988040045749597,0.065818548706099,-0.0030194799257824,0.20126824892534,-0.32558124897174,-0.253878558218669,-0.952867207732949,0.075409075902277,0.275276980302195,-0.139458995737292,-0.178115897950219,-0.0784898375128049,walk
11.015,-0.288389372157629,-0.135439307108605,0.957606310580717,0.529479607968229,0.0073749183902278,0.201241608793051,-0.974238211099363,0.0305667023503199,0.25901993277531,0.136763331037562,-0.319112000537639,-0.302993331717079,-0.987103233276724,0.0621177645716213,0.0023835312012635,0.207318852288315,-0.33457956763334,-0.25986078063809,-0.952439109842458,0.0849958100018521,0.273988934367603,-0.142653394691669,-0.177460350419168,-0.0775275377923686,walk
11.02,-0.28711290349367,-0.140007614264434,0.955132325209643,0.542496092751608,0.0066306238334029,0.205283731458436,-0.971734166777055,0.0281567433448478,0.266375415003211,0.140278230041074,-0.320789402369235,-0.310142612037424,-0.986381504676685,0.0585133268589612,0.0086187333403357,0.21246363734765,-0.34494987580038,-0.265941791311711,-0.952219435467881,0.0943081480498324,0.272646492725089,-0.144886523288079,-0.176297765612607,-0.0754162808554006,walk
11.025,-0.285912634105138,-0.144508799704685,0.952805321295919,0.554860348516196,0.005603641362751,0.208972267156354,-0.969361234458306,0.0254824459232741,0.273936036664154,0.143188512001676,-0.321592424425387,-0.317192029737453,-0.98591295581033,0.0550238357647698,0.0154842115786265,0.216983283411569,-0.356758320464112,-0.272086812724071,-0.952358371151932,0.103048058745777,0.271184662749531,-0.146115500111342,-0.174652998991844,-0.0722433629239184,walk
11.03,-0.284715040583609,-0.149057115088588,0.950643469308052,0.566761819657367,0.0042692483721822,0.212295417401244,-0.967240772827019,0.0226024691781812,0.281547892481244,0.14570928405275,-0.321481644652151,-0.324177253740206,-0.985727426669928,0.0516143582293441,0.0226897702296078,0.221090852219165,-0.370019707029856,-0.278280419642187,-0.953037876958127,0.110883530459401,0.269520921073766,-0.146327801418756,-0.172538356225444,-0.0681610010777501,walk
11.035,-0.283424907857755,-0.153820079581918,0.948654583025214,0.57826747330904,0.0025862036590553,0.215183846894819,-0.965502437510758,0.0195872884214128,0.289059690789651,0.14793804891281,-0.320460527928057,-0.331130591283491,-0.985852035824893,0.0481967849334758,0.0298795878012511,0.224884292187607,-0.384691062324143,-0.284533094305484,-0.954430123333153,0.117496638796926,0.26758242315219,-0.145546750157161,-0.16994730134331,-0.0633853482473071,walk
11.04,-0.281923468777577,-0.159002140321651,0.946834284309324,0.589290599595843,0.0004903124801456,0.217511927401646,-0.964281287574249,0.0165102253224511,0.296322819427501,0.149814950919972,-0.318579763044622,-0.338075204070651,-0.986314361753963,0.0446341227316012,0.0366519019909954,0.228306595708416,-0.400666114288863,-0.290885169781177,-0.956653708454062,0.122624040189632,0.265329385637622,-0.143828729399677,-0.16685908695696,-0.0581888633457946,walk
11.045,-0.280074954663723,-0.164808372304605,0.945167894985512,0.59957064293606,-0.0021141398727461,0.219095367133615,-0.963711853234587,0.0134347887530072,0.303183819455214,0.151098790377949,-0.315939929739841,-0.345020919383454,-0.987143227876149,0.0407685370555066,0.0425961348516973,0.231121624036824,-0.417770204673719,-0.297408205105362,-0.959764328495206,0.126074018203484,0.26275200076106,-0.141256478304693,-0.163249915776438,-0.0528884707578146,walk
11.05,-0.277753044343666,-0.171375692751728,0.943647047001154,0.608689254494684,-0.0053609503240345,0.219690984282975,-0.963918604974695,0.0103985626788297,0.309474486443346,0.151385687377805,-0.312689728996558,-0.351964944836037,-0.988371613682809,0.036480525330466,0.0473634177914374,0.232932459922181,-0.43576116817263,-0.30420036012434,-0.963779061089881,0.12773460007251,0.259846017854728,-0.137933471542496,-0.159100460520657,-0.0478289741980209,walk
11.055,-0.274881563433051,-0.178691892751535,0.942299549994986,0.616150030390873,-0.0094215926366417,0.219013801434268,-0.96500536574049,0.0073986463425178,0.315007512039556,0.150194461791853,-0.30901589793128,-0.358899022240655,-0.990043968769344,0.0317563100321806,0.0507539330799559,0.23326599574173,-0.454342410468103,-0.311371509212796,-0.968698249937684,0.127592557778267,0.256595202643066,-0.133979259498381,-0.1543957607492,-0.0433586663521383,walk
11.06,-0.271466249094799,-0.18655182204971,0.941214032483458,0.621518774104041,-0.0144952468139855,0.216780417592071,-0.967047223634904,0.0043870205204445,0.319583342228119,0.147110356893343,-0.305124166350368,-0.365820628505205,-0.992222768407102,0.0267197917119476,0.0527718724101172,0.231715081278424,-0.47318816044121,-0.319018232550228,-0.974498190232836,0.1257565487917,0.252979072745263,-0.129522287269869,-0.14912316819883,-0.0397962170833093,walk
11.065,-0.267592030222403,-0.194596377555396,0.940535281998582,0.624573009930323,-0.020791615490839,0.212766813733734,-0.970087572467798,0.0012822570905735,0.323008341969743,0.141933805135459,-0.301216889006167,-0.372742347712223,-0.99498500811868,0.0215947294172227,0.0535982104581336,0.228085166815193,-0.491971895553535,-0.327196516746386,-0.981105246213734,0.122454074663853,0.24899567520584,-0.124689520853256,-0.143275777059141,-0.0373945719500733,walk
11.07,-0.263381832622969,-0.202431432807546,0.940423439510352,0.625382552306823,-0.0285137358519927,0.206851063892451,-0.974140012819913,-0.0020046174956908,0.32511932743579,0.134758214267516,-0.297477395620873,-0.379693268356671,-0.998405042799426,0.0166064710697603,0.0534806605354316,0.222470268284639,-0.510384508775529,-0.335904967161475,-0.988384175184971,0.117983891450771,0.244674743701046,-0.119597363598244,-0.136861861429992,-0.0363136204272173,walk
11.075,-0.258944653454594,-0.20976036204571,0.941000218704361,0.624274267140199,-0.0378478316869187,0.199017543746554,-0.979191453294272,-0.0055424145687029,0.325806834237094,0.12593276485991,-0.294067836517886,-0.386710579069837,-1.00253192143843,0.0118820461170165,0.0526078910858763,0.215215121776423,-0.528135075867935,-0.345087116256046,-0.996159560065325,0.112643758199876,0.240069051276188,-0.11434901053873,-0.129913439904295,-0.0366119130012954,walk
11.08,-0.254349704737141,-0.216449722692162,0.942317359102449,0.621709087057927,-0.0489607710542291,0.189326793318302,-0.985202672691301,-0.0093641854583484,0.325028671178652,0.115938959165467,-0.291137582484277,-0.393825843502895,-1.00737460171884,0.0074119356824375,0.0510494699623935,0.206792427510925,-0.544940238193767,-0.354649437498391,-1.00425639732469,0.106674616864999,0.235234280313729,-0.109038450544037,-0.122486939028861,-0.038257879745658,walk
11.085,-0.249637180491233,-0.222503982186193,0.944361046680873,0.618149185697279,-0.0619992359970485,0.177876274421644,-0.992106368660333,-0.0134679853846897,0.3228080517813,0.105258415604816,-0.288832689132728,-0.401053276416379,-1.01290104842945,0.0030858363513579,0.0487824080672821,0.197672058266216,-0.560514984966763,-0.364482794621378,-1.01252975551845,0.100243651089394,0.230215261676599,-0.103756819972889,-0.114655752449007,-0.0411513451514781,walk
11.09,-0.244843510625432,-0.227990679144222,0.947075277421857,0.613975807084509,-0.0770856275438986,0.164773027921136,-0.999805758079585,-0.0178270307273293,0.319218629738148,0.0942927015165669,-0.287299515092966,-0.408384554904426,-1.01904661483562,-0.0012377798227299,0.0457590189276124,0.188242274012687,-0.574572158745388,-0.37447696706576,-1.0208697899188,0.093457666907829,0.225044078395656,-0.0985971969688749,-0.106500423005385,-0.0451449045130679,walk
11.095,-0.240014228710283,-0.232969887166594,0.950380214514168,0.609467732593235,-0.0943128212930867,0.150122318534699,-1.00817604178666,-0.022399744819977,0.314366899271054,0.0833449613447958,-0.286681961564216,-0.415789882064868,-1.02572456969004,-0.0056737828331662,0.0419646229516996,0.178792348464594,-0.586829383170108,-0.384525956889816,-1.0291933034962,0.0863882154941902,0.219742783931076,-0.0936565814262034,-0.0981012920216617,-0.0500601224256128,walk
11.1,-0.235199289716295,-0.237452885454088,0.954178614623069,0.604820380854655,-0.113744242419721,0.13402791166894,-1.01706853565337,-0.0271352326013165,0.308381951136924,0.0726405861065646,-0.287114636123747,-0.423222468822349,-1.03283543826791,-0.0102810868269243,0.0374481782482403,0.169533861135176,-0.597019589308875,-0.394527175257355,-1.03743603605498,0.0790961664943051,0.214326116660502,-0.0890351034220931,-0.0895340295468091,-0.055698423262631,walk
11.105,-0.230445061044016,-0.241389681149195,0.958358745357506,0.600184958237123,-0.135421826896503,0.116601687718191,-1.02631612266961,-0.0319751609997907,0.301413296453163,0.0623624887249988,-0.288713723301758,-0.430623861442463,-1.04027422207138,-0.0150563844513092,0.0323314987425339,0.16063632575183,-0.604903090983807,-0.404378102600533,-1.04554488572292,0.0716483861192647,0.208808470190582,-0.0848331013558351,-0.0808668863058516,-0.0618481990983126,walk
11.11,-0.225795993645845,-0.244678621493888,0.962801118333635,0.595713851472906,-0.159377131879908,0.0979814971760295,-1.03573925341849,-0.0368552575553034,0.293629580376012,0.0526863296734432,-0.291567330300129,-0.437928740121424,-1.04793440354995,-0.019942713640061,0.0268016771374144,0.152262588801289,-0.610279602747589,-0.413972668503053,-1.05346095958616,0.064123994617911,0.203218814580183,-0.0811476913061758,-0.0721603687459863,-0.0682895100120555,walk
11.115,-0.221305875916866,-0.247192128028303,0.967387550433802,0.591599602134276,-0.185638251077739,0.0783514598315327,-1.04515209110484,-0.0417089212882209,0.28521309414366,0.043807351127057,-0.295728143202852,-0.445068557878779,-1.05570804948511,-0.0248489439718439,0.0210883143970785,0.144595730879346,-0.612997242546952,-0.423198678179142,-1.06109350346704,0.0566149141548478,0.197618043428802,-0.0780703724989156,-0.0634715081783054,-0.074796906509884,walk
11.12,-0.217051224253723,-0.248810365085834,0.972008206061196,0.588095060342442,-0.214228071500361,0.0579547449899784,-1.05436752851243,-0.0464727211269071,0.276353557427455,0.0359531813297675,-0.301210911734496,-0.45197377977492,-1.06348284635752,-0.0296740134116651,0.0154345051815859,0.137851921764842,-0.612956036462242,-0.43193724078361,-1.0683013335494,0.0492250461100391,0.192106799718437,-0.0756856566097325,-0.0548629889514563,-0.0811404898357717,walk
11.125,-0.213141204918089,-0.249450062304924,0.976565912680529,0.58551042402037,-0.245153176342812,0.0370927477933657,-1.06319963639801,-0.0510911626234963,0.267247700228755,0.0293819569416257,-0.307994427782136,-0.458575269706499,-1.07113838304636,-0.0343235713620505,0.0100778736439827,0.132278711012538,-0.610107247658682,-0.440064702863821,-1.07490004751901,0.0420647118105458,0.186816722249242,-0.0740698347137042,-0.0464129264285665,-0.0870867722013822,walk
11.13,-0.209721035238769,-0.249077160312088,0.980978759420561,0.584196613542518,-0.278385690625424,0.0161138139261918,-1.07146437917981,-0.0555189439299076,0.258103659349772,0.0243729642852981,-0.31602481341704,-0.464806291026011,-1.07854454220604,-0.0387104614860579,0.0052499833020574,0.128146082359755,-0.604452913588225,-0.447456719181867,-1.08069066065464,0.0352378110946415,0.181891247481078,-0.0732897999915626,-0.0382196041570897,-0.0924026242611098,walk
11.135,-0.206965898359184,-0.247703589460194,0.985179478731285,0.584530202255114,-0.313843480108472,-0.0046009416744201,-1.07898164538878,-0.0597221486094086,0.249141413632466,0.0212199824856061,-0.325217496903388,-0.470606284225941,-1.08556347842649,-0.0427464055836205,0.0011832431986569,0.12574043379809,-0.596047858035512,-0.453993241770415,-1.08548666402812,0.0288306723919943,0.177467141975617,-0.0734023981032197,-0.0304001638907043,-0.0968640045509641,walk
11.14,-0.205064581297401,-0.245380267421693,0.989109448030218,0.586905960675387,-0.351375676473976,-0.0246513558855741,-1.08558039867053,-0.0636809741480622,0.240583849228177,0.0202305592066634,-0.335458534997212,-0.475925773681419,-1.09205386277546,-0.0463422807184391,-0.0018940409061545,0.125364484043938,-0.585001965939643,-0.459563118168386,-1.08913160902739,0.0229151245244631,0.173656132088498,-0.0744535204504736,-0.0230863811828872,-0.10026669012588,walk
11.145,-0.204196921780521,-0.242197147657063,0.99270903590388,0.591729917357086,-0.390757884943664,-0.0436337464794825,-1.09110569163917,-0.0673938013868518,0.232642182512892,0.0217246550303451,-0.346607807987342,-0.480730265225137,-1.09787476398335,-0.0494244317023587,-0.0037815089268738,0.127336259306634,-0.57147997502696,-0.464067730880063,-1.091523285471,0.0175642364557234,0.170516869149393,-0.0764746731332648,-0.0164171095672414,-0.102434016001292,walk
11.15,-0.20451091467967,-0.238289092389774,0.995908830889398,0.599403623571839,-0.43169659405084,-0.0611605762606483,-1.09542551077439,-0.070879146257202,0.225501372135053,0.0260243788275833,-0.358505410185447,-0.485001586581396,-1.10288850296167,-0.0519562927887572,-0.0043387559079354,0.131978793279279,-0.5556988101997,-0.467423994153682,-1.09264699740973,0.012863659361521,0.168022847148594,-0.079475954491854,-0.0105222058558197,-0.103219516482207,walk
11.155,-0.206102736305436,-0.233838207079939,0.998624147236662,0.610299269547922,-0.473840470085127,-0.0768822684589564,-1.09843654438739,-0.0741722786881728,0.219307255680804,0.0334332648877248,-0.370980675080348,-0.488737000007379,-1.10696441493193,-0.0539498680972558,-0.0035090309617962,0.139599148651558,-0.537922464601488,-0.469567332566913,-1.0925856782089,0.0089045576974777,0.166053928251817,-0.0834381698489153,-0.0054984479658265,-0.102506591046322,walk
11.16,-0.209002351445529,-0.229066686366014,1.00075275025567,0.624733236236277,-0.51679766078189,-0.0905061433532039,-1.10006759547088,-0.0773165208451925,0.214158021215903,0.0442098755458779,-0.383862459012622,-0.49194739576679,-1.10998463566833,-0.0554621925179605,-0.0013241052587839,0.150461759170131,-0.518451836081478,-0.470454876675836,-1.09148119435169,0.0057614543077585,0.164429444946,-0.088309032389596,-0.001389615340646,-0.100208211096886,walk
11.165,-0.213170257901628,-0.224222905062248,1.00217712887578,0.642944733517216,-0.560157461972526,-0.101808775705697,-1.10027856046274,-0.0803520377136006,0.210105331908173,0.0585414342828273,-0.396988755829101,-0.494655434795803,-1.11184968506351,-0.0565826276303334,0.0021095754618613,0.164761896383649,-0.497608261036479,-0.470068558437976,-1.08947036473205,0.0034693783843931,0.162964021522267,-0.0940059040599755,0.001816586001291,-0.096268219183058,walk
11.17,-0.218509762470664,-0.219568994757671,1.0027737490236,0.665079687967514,-0.603510496292154,-0.110641952161288,-1.0990555018035,-0.0833056815666788,0.207164156150399,0.0765206246834293,-0.410213664188537,-0.496893741095468,-1.11248076012632,-0.0574203977590803,0.0066308742986692,0.182602381272437,-0.475714482633245,-0.468417647827937,-1.0866415501659,0.0020121171717821,0.16151004194643,-0.100422801420251,0.0041750788956071,-0.0906649307864344,walk
11.175,-0.224890210718908,-0.215377585313652,1.00242765577192,0.691174461296506,-0.646460011701447,-0.116934993099093,-1.0964063060778,-0.0861848454352116,0.205321231410441,0.0981248106810629,-0.423411804212193,-0.49870266806727,-1.11181869693184,-0.0581010323517922,0.0120317525321896,0.203972726751783,-0.453077713211149,-0.465540554792448,-1.08302721738187,0.0013255589328546,0.159970779710879,-0.107437177155373,0.0057639556735237,-0.0834168092082027,walk
11.18,-0.232166700388749,-0.211938447279553,1.00104453958403,0.721132465893956,-0.688622095787758,-0.120696309296904,-1.09236074999924,-0.0889768282309106,0.204536210719629,0.123193369117769,-0.436482935412003,-0.500126769895197,-1.10982274916085,-0.0587750053244984,0.0180473656851009,0.228726319062378,-0.429975100185547,-0.461506081578641,-1.0786156246182,0.0013125864669558,0.158294269780881,-0.114913578000747,0.0066676176957586,-0.0745878746198253,walk
11.185,-0.240181883714221,-0.209565116090782,0.998551921673229,0.754690409256304,-0.729621104475758,-0.122016412074111,-1.0869737938765,-0.0916531519511187,0.204743011768914,0.151399387068106,-0.449358693455676,-0.501209393378394,-1.10647259985732,-0.0596311601834289,0.0243461817446562,0.256551856147105,-0.406639709720208,-0.456414435627895,-1.07336627292474,0.0018603913603531,0.156463811669547,-0.122704443703191,0.0069646943707124,-0.0642895338330386,walk
11.19,-0.248750460404907,-0.208585149961393,0.994890175700631,0.791379585075612,-0.76909129997571,-0.121073539408034,-1.0803276745941,-0.0941766658306458,0.205861033391214,0.182219256054417,-0.462009134066387,-0.50198597918079,-1.10177442005356,-0.0608984689915327,0.0305456682647525,0.286942614658542,-0.38324830439062,-0.450397872187331,-1.06722866544829,0.0028517401818473,0.154491779711063,-0.130650349031501,0.0067199886208405,-0.0526773132412444,walk
11.195,-0.257646718142735,-0.209302420291961,0.990005559786504,0.830498506317616,-0.806691471033591,-0.118139453906558,-1.07252921582085,-0.096508941864761,0.207812509535009,0.214914692286918,-0.47444412271463,-0.502478002641566,-1.09576776932451,-0.0628204603108403,0.0362626263518442,0.319178116700308,-0.35991574375836,-0.443619755781446,-1.06016836900301,0.0041678822528394,0.152412864569259,-0.138581683025944,0.005980246197967,-0.0399437737211701,walk
11.2,-0.266618684495151,-0.211935346131865,0.983858150469804,0.871120277741933,-0.842128192193047,-0.113577209042799,-1.06370124308423,-0.0986161041426775,0.210531797405253,0.248548776313918,-0.486706415167252,-0.502690176908525,-1.08852767304309,-0.0655999021734787,0.0411835848340453,0.352339780054181,-0.336700338011187,-0.436269910127175,-1.05219593902945,0.0056859083219417,0.150271152715782,-0.146322074387212,0.0047749652531744,-0.0263107145500443,walk
11.205,-0.275431020868211,-0.216554418309868,0.976444035986533,0.912152675993792,-0.875174806830905,-0.107820947551525,-1.05396997659302,-0.100472289417877,0.213957776783012,0.282051698676869,-0.498857479988624,-0.502612961839816,-1.08015842598266,-0.0693333457423456,0.0451261563242257,0.385376220031397,-0.313620072265915,-0.428554681320643,-1.04337982442838,0.0072755023180012,0.14810621093303,-0.153692676626214,0.0031224191501516,-0.0120238260988379,walk
11.21,-0.283912464688375,-0.223052866897599,0.967816241883429,0.952446258599578,-0.905675253630821,-0.101335529715496,-1.04345367415152,-0.102060780596206,0.218014545147607,0.314329648284523,-0.510960798057181,-0.502230175950489,-1.07078122784877,-0.0739710297014324,0.0480612982492708,0.417211664570062,-0.290673595482207,-0.420682585107376,-1.03382645031805,0.008798939557821,0.145950232454534,-0.160516508125958,0.0010361081961052,0.002649287789966,walk
11.215,-0.291978201003362,-0.231173143772765,0.958087607477643,0.990917374547221,-0.933532432598155,-0.0945667420002145,-1.03225875360559,-0.103372874036068,0.222595170517406,0.34438356272224,-0.523068939139298,-0.501528661770887,-1.06052154027257,-0.0793292530919645,0.0500816745628822,0.446864282615569,-0.267856669755831,-0.412849372508841,-1.02364340310019,0.0101130717379546,0.143834413431504,-0.166623087026924,-0.0014749439188244,0.0174197014183956,walk
11.22,-0.299615600780872,-0.240582961925721,0.947411557645994,1.026640478407,-0.958690563977723,-0.0879004235298687,-1.02048593342822,-0.104404527032236,0.227562241410271,0.371394029704225,-0.535219082213601,-0.500505719996214,-1.04950174789815,-0.0851530792481511,0.0513286905076104,0.473530839761304,-0.245168309022563,-0.405227591469657,-1.01292444059342,0.0110707670340106,0.141788789585692,-0.171854479871959,-0.0044109259991739,0.031978923886988,walk
11.225,-0.306846301620436,-0.250967529659503,0.93595207592747,1.05887692465956,-0.981123012795087,-0.0816455848969137,-1.0082431962098,-0.105152282853618,0.232767400067999,0.394742835801441,-0.547437512756833,-0.499171160303173,-1.03784194765259,-0.091199761098277,0.0519134585327721,0.496608264309626,-0.222607754003682,-0.397964094136369,-1.00176550987276,0.0115267944618431,0.139833254228611,-0.176073028471335,-0.007782526748977,0.0460031476841185,walk
11.23,-0.313693117704463,-0.262092579122074,0.923862373645272,1.08703815848416,-1.00083112671737,-0.0760447159184901,-0.995658506382094,-0.105611914771191,0.238077093874657,0.413972551056567,-0.559749763526134,-0.497543432383647,-1.02566783000885,-0.097300407074442,0.0518721901614189,0.515653446515001,-0.200166849593984,-0.391185063722172,-0.990281182754148,0.0113553285941389,0.137975873725719,-0.17916887756747,-0.0116054655940288,0.0591609792499285,walk
11.235,-0.320177434833145,-0.273801324525643,0.911288054354716,1.11061869441553,-1.01785030510319,-0.0712991409043966,-0.98288510440873,-0.105782433414088,0.24338667474057,0.428720681924422,-0.572191004440884,-0.49564267367779,-1.01312090123571,-0.103363063961523,0.0511823077844434,0.530317592239253,-0.177822602302988,-0.385003716170727,-0.978604737083382,0.0104741477684687,0.136222271797575,-0.181064655373827,-0.0158942208117618,0.071125361669183,walk
11.24,-0.326348019002739,-0.28594549016621,0.898393755618369,1.12915887335568,-1.03225358610952,-0.0675867236607033,-0.970096646971822,-0.105673679202785,0.248616002065032,0.43868477986772,-0.584810919508304,-0.493486089149578,-1.00036538279429,-0.109314241957057,0.0498308681771077,0.540311300677307,-0.155535872938996,-0.379523517402144,-0.966894188505407,0.0088616673041224,0.134576644626018,-0.181716055932019,-0.0206587136269035,0.0815882447855322,walk
11.245,-0.332310428732294,-0.298302328046446,0.885390860356864,1.14227971332853,-1.04414585590163,-0.0650546949918124,-0.957476263719028,-0.105311552918432,0.253696474986393,0.443654239404116,-0.597669665607686,-0.491089757453368,-0.987588775384581,-0.115026627508375,0.0478859116736429,0.545435999539152,-0.133261547452818,-0.374832430094908,-0.955359142754252,0.0065617150171481,0.133023978180286,-0.181108530255937,-0.0258984546560976,0.0902746115452335,walk
11.25,-0.338220551667717,-0.310544819768056,0.872538897061399,1.14977169648553,-1.05365165812199,-0.0637927894549655,-0.945206742129849,-0.10473586495987,0.25856436077215,0.443587643066906,-0.61082690488507,-0.488475311143322,-0.974996651084848,-0.120297055329078,0.0455146219904203,0.545660641554107,-0.110968261081836,-0.37099072253424,-0.944279403726263,0.0036829631709637,0.131513950106362,-0.179250563573146,-0.0315890541928715,0.0969536793738953,walk
11.255,-0.344239963042431,-0.322282108878134,0.860116184397365,1.15167151352227,-1.06090676701711,-0.0638107346826001,-0.93346563500441,-0.103991605193747,0.263163222822003,0.43867411741077,-0.624330391823891,-0.485675290957857,-0.962804178447317,-0.12489011528803,0.042938237433307,0.541182260506712,-0.088657047164828,-0.368019984390017,-0.933980570189995,0.0003959519091829,0.129970590516304,-0.17616444827123,-0.0376669464658404,0.10144801206672,walk
11.26,-0.350489431427292,-0.333123300358669,0.848384057242265,1.14827852824315,-1.06605977686355,-0.0650383468698272,-0.922423656166933,-0.103119403280282,0.267444571371437,0.429337760373258,-0.638209825099436,-0.482732694415062,-0.95122685685341,-0.12859940302425,0.0403670126337588,0.532429576570415,-0.0663684194804036,-0.365898778529148,-0.924778724347076,-0.0030811495651334,0.128320504515703,-0.171877279047198,-0.044023289343353,0.103642088297333,walk
11.265,-0.357034528659388,-0.342711852345913,0.837570338088254,1.14012161174821,-1.06927934803193,-0.0673443692448377,-0.912242826269735,-0.10215028846245,0.271358281337486,0.416198959420824,-0.652476919999237,-0.479696163178122,-0.940471907414528,-0.131273213291212,0.0379627699511839,0.520023556220304,-0.0441764453998367,-0.364563827058443,-0.91693778029425,-0.0065137811235955,0.126512227781017,-0.166416267130493,-0.0505098594558494,0.103490004265421,walk
11.27,-0.363900681647588,-0.350725134289696,0.827872929788819,1.12791895586145,-1.07075818048153,-0.0705572429206534,-0.903072639536477,-0.101105017673264,0.274838538855387,0.400032641824413,-0.667128881474295,-0.476615459330819,-0.930730735434902,-0.132800736242684,0.0358374161938229,0.504735025763362,-0.0221761803736688,-0.363912262875956,-0.910658825072679,-0.0096877666372795,0.124516022439076,-0.159810516859257,-0.0569503123419254,0.101020434088881,walk
11.275,-0.37108995686643,-0.356872604467949,0.819465212976072,1.11255588629986,-1.07071050524642,-0.0744754583694047,-0.895045127093177,-0.0999944944754399,0.277798276050685,0.38174315377318,-0.682152301333029,-0.473539727557302,-0.922172205898789,-0.133094689892509,0.0340618739675288,0.487459075975029,-0.0004707964690817,-0.363802659692916,-0.906082406179013,-0.0124333718155009,0.122318498674808,-0.152097098377273,-0.0631507675186956,0.0963375093635032,walk
11.28,-0.378580023101586,-0.360922818823562,0.812488660184801,1.09507009041802,-1.06936748955582,-0.0788670527736586,-0.888271030882502,-0.0988182309417805,0.280138352904217,0.362341673243819,-0.697526809934384,-0.470517019714207,-0.91493603349945,-0.132101610375785,0.0326583539208335,0.46919221086358,0.0208402313010218,-0.364056677421567,-0.903282228046373,-0.0146326965420366,0.119926522994598,-0.143326958294395,-0.0689101129511979,0.0896174387836529,walk
11.285,-0.386310033191849,-0.362756896025592,0.807034640097067,1.07661374718893,-1.06697602161381,-0.0834682711495909,-0.882838568122112,-0.0975609991882795,0.28176614766827,0.342898520623784,-0.713230073655185,-0.467591812635351,-0.909125818309801,-0.129837947357866,0.0315721196019536,0.45098471455513,0.0416742028508978,-0.364465268791606,-0.902256203286103,-0.0162242627848418,0.117374762586934,-0.133568264686771,-0.0740326229675194,0.0811006133485545,walk
11.29,-0.39417513366691,-0.362410633101861,0.803131580804697,1.05837273417546,-1.06380130468071,-0.0879934669423661,-0.878813964331432,-0.0961909002382051,0.282612630129532,0.324459005197699,-0.729245778860175,-0.464798904512833,-0.904803689214691,-0.12641935453072,0.0306486155989532,0.433856995071546,0.0619808175063933,-0.364801606758185,-0.902939624445278,-0.0172162497598502,0.114718798093752,-0.12290883732706,-0.0783408803778994,0.0710784363140652,walk
11.295,-0.40204766614769,-0.360057764863653,0.800755323754712,1.04146259447074,-1.06012839086141,-0.0921557450161273,-0.876241192256617,-0.0946634422123039,0.282641574077695,0.30794728858584,-0.745572900260257,-0.462155574381163,-0.901992314083416,-0.122046504801754,0.0296559062876027,0.418704247157435,0.0817561488667949,-0.364837332692005,-0.905250921614808,-0.017695588676338,0.112008249826174,-0.111460530856401,-0.0816816490194604,0.0598762720977764,walk
11.3,-0.409817457655067,-0.355924897377838,0.799862831893993,1.02685925596746,-1.05625729927166,-0.0956800670591627,-0.87513909210831,-0.0929341668329394,0.281853401159376,0.29410970763294,-0.76222982039762,-0.459656417334332,-0.900688513565377,-0.116943150524625,0.0283666633473291,0.406240304956097,0.101045664744576,-0.364353336113832,-0.90914398860418,-0.0178046598642997,0.109259779983155,-0.0993645003162637,-0.0839192100854004,0.0478389664040049,walk
11.305,-0.417416875316928,-0.350194175576212,0.800422402175546,1.01541217340663,-1.05249195066446,-0.0982917273187983,-0.875496756814598,-0.0909757813893066,0.280288240703046,0.283533416863778,-0.779246790330782,-0.457274467429331,-0.900881771939736,-0.111288159408045,0.0266554452487309,0.397015987960485,0.11993005509278,-0.363138015815622,-0.914622698221744,-0.0176816584683692,0.106456422443656,-0.0867913900045532,-0.0849207114199581,0.03532670327936,walk
11.31,-0.424802736150941,-0.342974617579703,0.802408399070167,1.00792145901703,-1.04913023290266,-0.0996889623701049,-0.877270215653594,-0.088789483394308,0.278026693534551,0.276718876182643,-0.79664825838535,-0.454968239263217,-0.902561260669808,-0.105195037084551,0.0245349059377916,0.391490738908321,0.138500061259496,-0.360976449085097,-0.921702432719129,-0.0174056238921877,0.103574117927515,-0.073931699511942,-0.0845464095361641,0.0227205442057356,walk
11.315,-0.431908575704789,-0.33436622992754,0.80576008697446,1.00520158634237,-1.04646282909707,-0.0995302708404413,-0.880382981919937,-0.0864029450361488,0.275183232118551,0.274138642398552,-0.814436085395606,-0.452690442399413,-0.905702069282187,-0.0987505533659457,0.0220991799355831,0.390091187893487,0.156836560690042,-0.357643469109348,-0.930354003532337,-0.0169943540432726,0.100607131110287,-0.0609794376104967,-0.082653555870045,0.0104255238648503,walk
11.32,-0.438610173718374,-0.324558092196617,0.810339329516007,1.00806849783695,-1.04478010776009,-0.0974574616158432,-0.884730492078613,-0.0838588034436638,0.271892445288935,0.276231352862058,-0.832584732182874,-0.450393971985065,-0.910240719905243,-0.0920722717780892,0.0194240583120969,0.393206553018941,0.17500770088682,-0.352911124975549,-0.940476718156061,-0.0164543812478064,0.0975685371827838,-0.0481183807998346,-0.0791095824508041,-0.0011411319436905,walk
11.325,-0.444728111754827,-0.313885976809217,0.815918461533803,1.0172562118706,-1.04437889480944,-0.0931460190376778,-0.890186467072084,-0.0812044364473943,0.268294802622291,0.283339158973852,-0.851049670172085,-0.448034053805125,-0.916058801402811,-0.0853405258214517,0.0164984860772957,0.401129036603389,0.193080694031758,-0.346569030549458,-0.951904599292101,-0.0158329527804558,0.0944749677023974,-0.0355173715485549,-0.0738037368493731,-0.0115765596516701,walk
11.33,-0.450051400636002,-0.302831955971697,0.822196100484436,1.03331305558771,-1.04556315859368,-0.0863585341440831,-0.896609438582305,-0.078488157507241,0.264527084790221,0.295630943525763,-0.86978189055985,-0.445568077417888,-0.922982287446408,-0.0787984038704285,0.0132106927391875,0.41398066380247,0.211138331178848,-0.338448608600888,-0.964409664157203,-0.0152308209690597,0.0913434759220895,-0.0233323927284913,-0.0666537323481382,-0.0205231523720999,walk
11.335,-0.454357200842849,-0.291992664196224,0.828820573463036,1.056512139552,-1.04864028449238,-0.0769861374018735,-0.903849110242124,-0.0757581185688555,0.26071601760502,0.313037880883144,-0.888742099987375,-0.442954360918798,-0.930790419641135,-0.0727374379523638,0.0093629793553218,0.43165246253136,0.229294811473014,-0.328445198532458,-0.97768085039832,-0.0147823037711063,0.0882100313465694,-0.0117088100634707,-0.057614242843645,-0.0276956565028335,walk
11.34,-0.457424906567224,-0.282029673722516,0.835413509432781,1.08678228306864,-1.05391748303047,-0.0650775162193568,-0.911752897128592,-0.0730604034392617,0.256971222083533,0.335205578952494,-0.907912754471025,-0.440150049846854,-0.939228612348501,-0.0674744997769858,0.0046969129117037,0.453760022285382,0.247711095899158,-0.316536725533441,-0.99130185694198,-0.0146316635539376,0.0851502773342495,-0.0007810160857552,-0.0466931952671958,-0.032902865226201,walk
11.345,-0.459056938843148,-0.273595441003568,0.841599855871585,1.12366860050853,-1.06169933587902,-0.0508564176484164,-0.920172441709195,-0.0704387842204477,0.253377214759782,0.361472593941915,-0.927306889159578,-0.437109067050516,-0.948026553404987,-0.0633128943269525,-0.0010643714702173,0.479624890018301,0.266607981357519,-0.302796315547946,-1.00476278688199,-0.0149161402320294,0.0822804545736039,0.0093280295665352,-0.033971780794757,-0.0360618696597037,walk
11.35,-0.459105160651091,-0.267248370888678,0.847042165203485,1.16634462925749,-1.07228456152595,-0.0347224185525458,-0.928969387554154,-0.0679391985580937,0.249988014562567,0.390894816017004,-0.946971226688029,-0.433782169062245,-0.956920623502607,-0.0604956306274436,-0.0081604851979754,0.508300675086658,0.286271177738103,-0.287393719341915,-1.01750744399553,-0.0157472416304148,0.0797385063574474,0.0185052442783455,-0.019618393643279,-0.0371994733578615,walk
11.355,-0.457487571705747,-0.263395594713397,0.851464406793179,1.21368080933388,-1.08596201166163,-0.0172322051217362,-0.938020207545768,-0.0656161775378321,0.246827564317884,0.422317066456531,-0.966982717423077,-0.430120041635026,-0.965673126038298,-0.0591759706991682,-0.0167531150984839,0.538644909037464,0.307045248665738,-0.270584183912891,-1.02898855304341,-0.0171898699272736,0.0776618866165742,0.0266458472759574,-0.0038910916552169,-0.0364390402599647,walk
11.36,-0.454190702922321,-0.262280678458381,0.854659205276357,1.26434173008929,-1.10300865728531,0.0009316865941205,-0.947220722534101,-0.0635352974711451,0.243895412747996,0.454464928496387,-0.987441497910573,-0.426077790148212,-0.974083376989025,-0.0594155926528154,-0.026917905756174,0.56941005103173,0.329319610281836,-0.252690042970556,-1.03871063269257,-0.0192524228958568,0.0761737981240527,0.0336549073106168,0.012869698425019,-0.0339791851035432,walk
11.365,-0.44925503894528,-0.263987011391653,0.856504976129894,1.31688372227427,-1.12369032232758,0.0189968209746303,-0.956501377920073,-0.0617699022209006,0.241153934065891,0.486031534895667,-1.00846374872048,-0.421618758940285,-0.981995344487591,-0.061190956523012,-0.0386502655962338,0.599328795757303,0.353511341757062,-0.234080497598445,-1.04626416785014,-0.0218943660778174,0.0753763375351702,0.0394517480359939,0.0302546228782946,-0.0300720584648809,walk
11.37,-0.442731770196877,-0.268425378535949,0.857025398980992,1.36985576337883,-1.14826092854962,0.0361439269598417,-0.96586825223872,-0.0603963273595761,0.238467833970881,0.515761938030642,-1.03017457567697,-0.41671804119633,-0.989308130600612,-0.0643885175399549,-0.0518594742387934,0.627196208599453,0.38004554787631,-0.215149040930665,-1.05136097080334,-0.0250405902409037,0.0753438496485813,0.0439741294002602,0.0478039340327908,-0.0250020648783151,walk
11.375,-0.434776368611849,-0.275348306467856,0.856353070979501,1.42191993610395,-1.17695500659099,0.0515635173635431,-0.975363747644999,-0.0594936888682376,0.235694119639507,0.542548054533317,-1.05269909155304,-0.411367518779859,-0.995986315234107,-0.0688003545805754,-0.0663571745137942,0.651961406366043,0.409331633493872,-0.196285624538979,-1.05386810040695,-0.0285892721623124,0.0761134793236659,0.0471806661117778,0.0650317722736983,-0.0190613382432515,walk
11.38,-0.425772858622452,-0.28441090539256,0.854624823422782,1.47197995742693,-1.2099732869348,0.0645205569009865,-0.984984863491774,-0.0591474065281272,0.232839629406916,0.565524388061862,-1.07615192071133,-0.405582247898131,-1.00206061591584,-0.0741488517374025,-0.0818689677318798,0.672819293913081,0.441736750204876,-0.177846089634914,-1.05382841424653,-0.032413740481619,0.0776744556629017,0.0490529923223544,0.0814557759418837,-0.0125221741543053,walk
11.385,-0.416191837560409,-0.295237840154194,0.852016045323384,1.51927308401603,-1.24746709172917,0.0744064301753734,-0.994733224268077,-0.0594521248812352,0.229968179545806,0.584130572132768,-1.10062814772939,-0.399404839619712,-1.0076141977177,-0.0801479519486646,-0.0980811383974491,0.689269338536677,0.477561681474071,-0.160127580401713,-1.05145912197464,-0.0363697345486056,0.0799598534212242,0.0495992838314702,0.0966296201589386,-0.0056127862103995,walk
11.39,-0.406448589071434,-0.307496820664717,0.848757205561421,1.56338383355318,-1.28952851111458,0.0807570859922555,-1.00465927241368,-0.0605085284735867,0.227121311783954,0.598112639696528,-1.12619867609136,-0.39290395872155,-1.01276035198013,-0.0865715632238541,-0.114699816814868,0.701114157544269,0.517024665131464,-0.143357911336417,-1.04712679923535,-0.0403155709243642,0.082846255365836,0.0488579523112978,0.11017465716454,0.0014964778586696,walk
11.395,-0.396910298899314,-0.320943497134421,0.845066687048647,1.60418120510089,-1.33618890988103,0.08323534536613,-1.01482602268581,-0.0624096499927239,0.224373073773156,0.607468797125543,-1.15291001523184,-0.386166280913099,-1.0176226341792,-0.0932847344131333,-0.131484487373663,0.708403789457023,0.560254943276083,-0.127698952633209,-1.04130126503038,-0.0441392748883918,0.0861667677295608,0.0468980837761774,0.12180572601562,0.0086946928035964,walk
11.4,-0.387911419696863,-0.335396290577414,0.841131617911847,1.64172907050841,-1.38742167331292,0.0815997318065916,-1.02528596455212,-0.0652205227465629,0.221840021495927,0.612378097829501,-1.18078539261557,-0.379285735355551,-1.02232426176902,-0.100217927973801,-0.148237424437918,0.711363345815973,0.607293563161338,-0.113255722060724,-1.03449409584126,-0.0477772748884009,0.0897376346050197,0.0438142702592249,0.131345860060924,0.0159244538539335,walk
11.405,-0.379774447921186,-0.350675461298127,0.837122041953674,1.67622787181603,-1.44314220674353,0.0756890877119725,-1.03606753592664,-0.0689591385169077,0.219662950692355,0.613151930170241,-1.20982365977571,-0.372355519471811,-1.0269845849275,-0.107307594849484,-0.164765913249514,0.710343193390221,0.658097558429219,-0.100081658719687,-1.02719320493983,-0.0512140806873623,0.0933902924091285,0.0397171745628633,0.138726507872124,0.0231752371169865,walk
11.41,-0.372820617907304,-0.366558106234197,0.833203493390022,1.70800892289487,-1.50320187646218,0.0654344038980603,-1.0471639602353,-0.073586734954799,0.217988358756785,0.610220001463842,-1.23999472427946,-0.365465880892022,-1.03171605949742,-0.114446250006591,-0.180849963682949,0.705803251740874,0.712545286677241,-0.0881769773157572,-1.0198095039011,-0.054466872218624,0.0969964735948388,0.03472368007673,0.14397405089852,0.0304791868282734,walk
11.415,-0.367350826170206,-0.382776587962148,0.829530904479727,1.73755881771333,-1.56737896755414,0.0508842371079679,-1.05852586951119,-0.0790111027607723,0.21695846724247,0.604133966395405,-1.2712325363066,-0.358706872184167,-1.0366174460722,-0.121470379506466,-0.196236179877871,0.698315182969324,0.770442613600273,-0.0774842242178355,-1.01264918413819,-0.0575683452757898,0.100477354552216,0.0289495562812123,0.147187695609012,0.0379078442248246,walk
11.42,-0.363603986117949,-0.399059215389662,0.82622499955153,1.76553330739997,-1.63537241050387,0.0322194626976183,-1.0700580822936,-0.085100754782136,0.216711085592235,0.595562599332661,-1.30342764183558,-0.352172984120338,-1.04176245406855,-0.128188230964133,-0.2106600139346,0.688557246497884,0.831530258924814,-0.0678879426277548,-1.00591434207261,-0.0605595630764888,0.103795642624451,0.0225051223451952,0.148515855666944,0.0455660546427407,walk
11.425,-0.361718685953777,-0.415192815654885,0.823346401291254,1.79272727206992,-1.70680084796036,0.009741319803643,-1.08162053823798,-0.0917032558212384,0.217384208495182,0.585258747453653,-1.33642183806233,-0.345965856909977,-1.04718610619897,-0.134430507022016,-0.223886037753426,0.677282642906779,0.895492876170407,-0.0592239576083313,-0.999721581957765,-0.0634958894576201,0.10693803681856,0.0154929407189059,0.148136933368067,0.0535792075817302,walk
11.43,-0.3617209176148,-0.431072680014851,0.820884815226246,1.81998991657829,-1.78120478912994,-0.0161668672376907,-1.09303329186676,-0.0986601992299286,0.219119582233573,0.573993744526458,-1.370007132444,-0.340191988089194,-1.05287601561838,-0.140095899742502,-0.235743987056143,0.665256908528636,0.961970471303182,-0.0512994792749127,-0.994122193254043,-0.0664566003641839,0.109900978535204,0.0080064416987277,0.146246370097054,0.0620724407324498,walk
11.435,-0.363541408442429,-0.446707939258886,0.818771514149362,1.84810592798363,-1.85804825005839,-0.0450906109325135,-1.10408446334563,-0.10581555003426,0.222062698435757,0.562476439695321,-1.40392848516233,-0.334955198723036,-1.05877732229522,-0.145165614835131,-0.246135578536971,0.653180538286398,1.0305712729246,-0.0439189016422807,-0.989114548149545,-0.069541943435631,0.112688675121788,0.0001290806030732,0.143047231378566,0.0711462861649656,walk
11.44,-0.367048950299424,-0.462185220527646,0.816908763676726,1.87768548144218,-1.93671787203569,-0.0766294879724305,-1.11453869801386,-0.113020291432801,0.226358845891744,0.551287241240992,-1.43788671451435,-0.330347229879859,-1.06481014898752,-0.149684945004932,-0.255010208859336,0.641625941437917,1.10088302113998,-0.0369062012746905,-0.984654510005867,-0.0728539610568751,0.11531820177413,-0.0080654416247078,0.138740610366001,0.0808577014630183,walk
11.445,-0.372083810836877,-0.477630868325762,0.815199953720005,1.90909356100419,-2.01651850708681,-0.110423830795509,-1.12414373402203,-0.120138136764271,0.232145558927385,0.540845210766525,-1.47153898788329,-0.326440289376892,-1.07088519859708,-0.153738325340801,-0.262338725374332,0.631006189160479,1.17247997387355,-0.0301184492390312,-0.980676680574052,-0.0764789036912201,0.117816344111943,-0.0165113571968817,0.133516481825289,0.09121144188967,walk
11.45,-0.378487028582587,-0.493204093777349,0.813570974832485,1.94241116755353,-2.09666495472001,-0.14616174786367,-1.1326382694584,-0.127052393238965,0.239546044628787,0.531398288540639,-1.50449890037252,-0.323281561273811,-1.07690525187944,-0.157443772819358,-0.268112293818039,0.621566079464742,1.24492593872048,-0.0234531935493089,-0.977128709855206,-0.0804882287594748,0.120201147820622,-0.0251479541417889,0.127550334246222,0.102157366602027,walk
11.455,-0.386133307864389,-0.509107757581156,0.811990012106844,1.97740162161668,-2.17627224789994,-0.183573237620358,-1.13977023579564,-0.133668765959491,0.248673250873725,0.523015440083171,-1.53634009024227,-0.320886195327569,-1.0827581550951,-0.160962288450329,-0.272357564927769,0.61337477671351,1.31777553801846,-0.0168556078409002,-0.974003980612295,-0.0849480777622769,0.12246019831888,-0.03391661869108,0.121009589179424,0.11358636305818,walk
11.46,-0.394939101623754,-0.525554363932726,0.810457668177184,2.01347543917081,-2.25434994336796,-0.222416448283183,-1.14528096999924,-0.139909793504393,0.259620458964389,0.51557630630336,-1.56660388875004,-0.31922655268774,-1.08831918521476,-0.164494802948873,-0.275135439988379,0.60631502395297,1.39057464368213,-0.0103257870971,-0.971352276162657,-0.0899090074966046,0.124546708594171,-0.0427574214096408,0.114067016010808,0.125325160340835,walk
11.465,-0.404849524715229,-0.542681050028901,0.808989816282928,2.04967811033871,-2.32980487913782,-0.262456257657554,-1.14887275905881,-0.145703622331766,0.272440873068827,0.508776032570787,-1.5948069519435,-0.318220242735807,-1.09347268972531,-0.168249826780935,-0.276507437532154,0.600085245391772,1.46285910655122,-0.003919571641798,-0.969258414196222,-0.0953657372132999,0.126404178012058,-0.0516035040718884,0.106912119036953,0.137139205899117,walk
11.47,-0.415853016571002,-0.560491429846978,0.807654967908258,2.08472676335755,-2.40145097153154,-0.303436984626217,-1.15024119572528,-0.150976290886462,0.287157489783295,0.502163947167086,-1.62044459345685,-0.317722826108274,-1.09814241749989,-0.17239618343778,-0.276490998183671,0.594232592986479,1.53415176576681,0.002263444272073,-0.967799225647798,-0.101214044071936,0.128007994278098,-0.0603729435155364,0.0997511887786101,0.14875217274333,walk
11.475,-0.427984832496503,-0.578852023400708,0.80660377991802,2.11708988099995,-2.46801918419694,-0.34505782204064,-1.14911213117238,-0.155655004537148,0.30376864824349,0.49521254022515,-1.64299011677876,-0.317529444817921,-1.10230816990274,-0.177033049960781,-0.275041581724179,0.588214687290534,1.60396044664419,0.0081027479033207,-0.967006111166018,-0.107244723812921,0.129395852288813,-0.0689614476915288,0.0927938514330108,0.159879714228691,walk
11.48,-0.441295177663268,-0.597532815528461,0.806054266861529,2.14507454939614,-2.52816229125821,-0.386960444258291,-1.14524274686662,-0.159680160176003,0.322228201537141,0.487390883648777,-1.6618948997331,-0.317384297162416,-1.10599688434505,-0.18219426548715,-0.272076446827634,0.5814666795346,1.67178042551672,0.0134807073520604,-0.966856664063877,-0.113183214906769,0.130665753386095,-0.0772405829900431,0.0862336335130095,0.170264512745357,walk
