thigh_Accel_X,thigh_Accel_Y,thigh_Accel_Z,thigh_Gyro_X,thigh_Gyro_Y,thigh_Gyro_Z,label_header,label_id
-9.890975231614903551e-01,-5.537505843275349580e-03,1.239967231365677047e-01,1.912265908454172103e-01,1.559430497620871159e-01,2.748884823576988601e-01,1.378999999999999915e+01,1.000000000000000000e+00
-9.910365873262845238e-01,1.336584026265027168e-02,1.412618463173712646e-01,2.375689833031950915e-01,1.502660847671078437e-01,3.082991108262094215e-01,1.379499999999999993e+01,1.000000000000000000e+00
-9.948523907910680197e-01,2.566502635183384728e-02,1.556299494599098776e-01,2.786441611572768040e-01,1.458650412359928372e-01,3.264605662131767061e-01,1.380000000000000071e+01,1.000000000000000000e+00
-9.998533626901542348e-01,4.132898244139508737e-02,1.742422216615778507e-01,3.242206023130351222e-01,1.334916735648081776e-01,3.648843000414041526e-01,1.380499999999999972e+01,1.000000000000000000e+00
-1.007949251932004797e+00,5.436291511051201397e-02,1.910188779783840718e-01,3.669299680353682591e-01,1.256382108213109083e-01,4.025107818110119640e-01,1.381000000000000050e+01,1.000000000000000000e+00
-1.018799926416774193e+00,7.123578978159769703e-02,2.109704032032110599e-01,4.287239767400263801e-01,1.142512216067170516e-01,4.433336754207466424e-01,1.381499999999999950e+01,1.000000000000000000e+00
-1.029884514240020144e+00,8.684878237130597145e-02,2.300553541549422709e-01,4.976600720860070992e-01,1.010200582000109482e-01,4.910591239782129414e-01,1.382000000000000028e+01,1.000000000000000000e+00
-1.033544834113854893e+00,1.014627152782126562e-01,2.451197867258676222e-01,5.667081978059133052e-01,8.842189401089105283e-02,5.376554615940993820e-01,1.382499999999999929e+01,1.000000000000000000e+00
-1.035039109008048630e+00,1.154508190076319191e-01,2.611669550170523935e-01,6.462099737974814628e-01,7.144655451125825341e-02,5.951558218694532609e-01,1.383000000000000007e+01,1.000000000000000000e+00
-1.038020955592735550e+00,1.334583443857775553e-01,2.729313286163433938e-01,7.236240376296561028e-01,5.737050618978287164e-02,6.452541882324135392e-01,1.383500000000000085e+01,1.000000000000000000e+00
-1.038460925541061064e+00,1.627196007513093123e-01,2.936290796518027935e-01,8.414906314703574086e-01,3.514166056922679582e-02,7.201764956253682293e-01,1.383999999999999986e+01,1.000000000000000000e+00
-1.040619578770304532e+00,1.824537684188234921e-01,3.098722777614572044e-01,9.630206959936193911e-01,1.525136400287903024e-02,7.926683886644791954e-01,1.384500000000000064e+01,1.000000000000000000e+00
-1.043217127876005179e+00,2.014397037504360721e-01,3.245261323711136625e-01,1.085067801588921466e+00,-4.509409041760428262e-03,8.601953575423997300e-01,1.384999999999999964e+01,1.000000000000000000e+00
-1.049216529946914278e+00,2.178079821931603044e-01,3.435265060132753345e-01,1.208631462672120183e+00,-3.102594500004984129e-02,9.399937568926095555e-01,1.385500000000000043e+01,1.000000000000000000e+00
-1.046067119856020078e+00,2.331947602055314261e-01,3.561441989323811397e-01,1.289470490889913945e+00,-5.115732910951935331e-02,9.959507264360063505e-01,1.385999999999999943e+01,1.000000000000000000e+00
-1.042728552878864567e+00,2.402559507989560084e-01,3.701536153358354619e-01,1.377287236338748500e+00,-7.363194287587265796e-02,1.065126129976059488e+00,1.386500000000000021e+01,1.000000000000000000e+00
-1.037355244503368468e+00,2.393425563391920752e-01,3.839148664103410047e-01,1.445369021270575649e+00,-9.904586835752884899e-02,1.138264394583896610e+00,1.386999999999999922e+01,1.000000000000000000e+00
-1.035352321717667667e+00,2.293732699796928731e-01,3.870282399225646874e-01,1.483797861343149282e+00,-1.210869616794986448e-01,1.183271774597308701e+00,1.387500000000000000e+01,1.000000000000000000e+00
-1.039779562663136314e+00,2.171659907347140150e-01,3.839371367828723902e-01,1.505457627322412728e+00,-1.435744018398109334e-01,1.224361587871264812e+00,1.388000000000000078e+01,1.000000000000000000e+00
-1.050105509106440405e+00,2.009378459376682802e-01,3.748821419294190438e-01,1.499361475962091017e+00,-1.581453642556999162e-01,1.261341488571996017e+00,1.388499999999999979e+01,1.000000000000000000e+00
-1.073581845393416945e+00,1.834574809822135666e-01,3.599871864634154317e-01,1.452690462924372206e+00,-1.764618544181814075e-01,1.279837237047063647e+00,1.389000000000000057e+01,1.000000000000000000e+00
-1.103639963076997521e+00,1.650597373742681562e-01,3.351590212954580483e-01,1.374011632831658281e+00,-1.874524238018932809e-01,1.298022080024699543e+00,1.389499999999999957e+01,1.000000000000000000e+00
-1.146115082467266788e+00,1.429856803625262907e-01,2.980279511018358307e-01,1.270560236302164636e+00,-1.948207523241339834e-01,1.311068162115746283e+00,1.390000000000000036e+01,1.000000000000000000e+00
-1.186252680466548526e+00,1.280283964079972359e-01,2.645505108671813987e-01,1.150650049532495611e+00,-1.939835182037222272e-01,1.323351366734544232e+00,1.390499999999999936e+01,1.000000000000000000e+00
-1.232685552143631291e+00,1.176599314706517629e-01,2.283459862974285826e-01,1.019442208950209761e+00,-1.883452121718728334e-01,1.334841222547325401e+00,1.391000000000000014e+01,1.000000000000000000e+00
-1.272844991280992044e+00,1.209224948664769927e-01,1.904924271476155784e-01,9.191188100572789121e-01,-1.884592344936038277e-01,1.364069651825134732e+00,1.391499999999999915e+01,1.000000000000000000e+00
-1.314734732054974931e+00,1.352130093639817843e-01,1.585456023069921894e-01,8.530918432454845934e-01,-1.819363520096259068e-01,1.407736862101327979e+00,1.391999999999999993e+01,1.000000000000000000e+00
-1.349501747272621399e+00,1.613924438188586996e-01,1.296473745006710976e-01,8.107018430259189667e-01,-1.766695438104389226e-01,1.469044565047843864e+00,1.392500000000000071e+01,1.000000000000000000e+00
-1.378061769666871328e+00,1.835254679435307790e-01,1.053582810939636266e-01,8.151866235164805241e-01,-1.698580991556329078e-01,1.549381866159623922e+00,1.392999999999999972e+01,1.000000000000000000e+00
-1.409655542452401100e+00,2.086321661440928565e-01,6.161019934086477134e-02,8.132883829130197473e-01,-1.650988464140058509e-01,1.676985167110273345e+00,1.393500000000000050e+01,1.000000000000000000e+00
-1.433893190786826644e+00,2.382633288385928028e-01,2.671126092862735613e-02,8.678648246666681443e-01,-1.526732619159456572e-01,1.839947161058759884e+00,1.393999999999999950e+01,1.000000000000000000e+00
-1.431540262791672014e+00,2.647873385639748500e-01,-4.059238631072214186e-03,9.369222991922185884e-01,-1.334584693920710941e-01,2.017009117329775503e+00,1.394500000000000028e+01,1.000000000000000000e+00
-1.393648984266195656e+00,3.119661823163636938e-01,-3.289060617088655769e-02,1.076269635674994118e+00,-1.062752572144468194e-01,2.231920536230423302e+00,1.394999999999999929e+01,1.000000000000000000e+00
-1.367645891483918685e+00,3.584819211488899926e-01,-4.582649725442571736e-02,1.219244141875718945e+00,-7.608069966000198525e-02,2.343640482693149174e+00,1.395500000000000007e+01,1.000000000000000000e+00
-1.337438658393780289e+00,4.448028194812033709e-01,-5.636228411767127411e-02,1.420324350298942884e+00,9.625467682939821412e-04,2.423046872937959506e+00,1.396000000000000085e+01,1.000000000000000000e+00
-1.314441266340645509e+00,5.268851268203714744e-01,-6.749798212236807204e-02,1.648606896410137468e+00,1.054904981977439066e-01,2.531850515201107932e+00,1.396499999999999986e+01,1.000000000000000000e+00
-1.290596139584728075e+00,5.623466879428183907e-01,-6.076219691651311983e-02,1.848140489190245983e+00,2.080119899653418980e-01,2.651414129746616943e+00,1.397000000000000064e+01,1.000000000000000000e+00
-1.233406945502979246e+00,5.635199059080242545e-01,-3.544971215461362180e-02,1.977447345850130933e+00,3.262079152635133927e-01,2.677814431466475575e+00,1.397499999999999964e+01,1.000000000000000000e+00
-1.228131162479701555e+00,5.573942579277286757e-01,-8.917704951788266513e-03,1.958576061566701387e+00,3.770118176943283994e-01,2.674079247674454152e+00,1.398000000000000043e+01,1.000000000000000000e+00
-1.227141648228062376e+00,5.409100684760851374e-01,1.790388620899690739e-02,1.828779071240566712e+00,3.840336787249994388e-01,2.647254104433994115e+00,1.398499999999999943e+01,1.000000000000000000e+00
-1.214588279860232101e+00,5.063147639179524928e-01,4.115204205502133450e-02,1.658409993498037416e+00,3.697525370148190271e-01,2.621515157779358951e+00,1.399000000000000021e+01,1.000000000000000000e+00
-1.208739595661362909e+00,4.739307094979203216e-01,7.299832680390927475e-02,1.416079982963997841e+00,3.419228077949595379e-01,2.617931245762905590e+00,1.399499999999999922e+01,1.000000000000000000e+00
-1.208601699522990902e+00,4.020118569871797831e-01,1.083220621443193310e-01,1.176755706180844463e+00,2.752799131483660289e-01,2.616450802332924930e+00,1.400000000000000000e+01,1.000000000000000000e+00
-1.190383981220321186e+00,2.943651221878118007e-01,1.206494994666919840e-01,1.062955497645645453e+00,2.010822982347531540e-01,2.589112007466473742e+00,1.400500000000000078e+01,1.000000000000000000e+00
-1.156812052450758355e+00,1.840863409414690566e-01,1.196816769196897140e-01,9.940978366077549699e-01,1.140716509776772275e-01,2.513504517825920992e+00,1.400999999999999979e+01,1.000000000000000000e+00
-1.109681034570744185e+00,6.531062504570836480e-02,9.877196052908693291e-02,9.961941655063869527e-01,3.110764465661643163e-02,2.396658508690907130e+00,1.401500000000000057e+01,1.000000000000000000e+00
-1.048978197189487815e+00,-6.281469302087538953e-02,5.727923792640031431e-02,1.063587698936756309e+00,-6.252708641046794691e-02,2.253790266867699010e+00,1.401999999999999957e+01,1.000000000000000000e+00
-9.902325809917388311e-01,-1.698798656524747042e-01,2.673325342548897587e-02,1.107400654440904741e+00,-1.227920715192694634e-01,2.168079496804933282e+00,1.402500000000000036e+01,1.000000000000000000e+00
-9.322293858020971324e-01,-2.609465754212233479e-01,1.601066487815190620e-02,1.073794657493065907e+00,-1.684372522815768825e-01,2.048550605290259785e+00,1.402999999999999936e+01,1.000000000000000000e+00
-9.018846393800071803e-01,-3.042493422140116754e-01,2.096134816781306670e-02,9.344530235808234941e-01,-1.928916655876192210e-01,1.937386941694679621e+00,1.403500000000000014e+01,1.000000000000000000e+00
-8.851506686077240671e-01,-2.898541433262290523e-01,3.996663863488041091e-02,7.487021091211065738e-01,-1.942205939668167625e-01,1.798629310535806436e+00,1.403999999999999915e+01,1.000000000000000000e+00
-8.933206224038929832e-01,-2.508213677201922565e-01,4.924742617973355829e-02,6.368333506356120832e-01,-1.903616340067035839e-01,1.717609886932779606e+00,1.404499999999999993e+01,1.000000000000000000e+00
-9.326799547017154968e-01,-1.559896146015964380e-01,5.572618187327372380e-02,5.707636856809474857e-01,-1.714956862927244918e-01,1.641744023368328476e+00,1.405000000000000071e+01,1.000000000000000000e+00
-9.646662068478800700e-01,-6.858189886827624482e-02,5.334843678178805004e-02,5.452160142803168519e-01,-1.612448781587138003e-01,1.599569206495869533e+00,1.405499999999999972e+01,1.000000000000000000e+00
-1.002563824729455266e+00,4.746646015500078850e-03,4.554527395654073274e-02,5.303876996040344238e-01,-1.445986670621275394e-01,1.581305411456019439e+00,1.406000000000000050e+01,1.000000000000000000e+00
-1.016417133179853050e+00,8.037122979274539947e-02,3.199104768000089749e-02,5.241065109874223360e-01,-1.362198170414850307e-01,1.556082891985236971e+00,1.406499999999999950e+01,1.000000000000000000e+00
-1.008565635683988937e+00,1.441125204956703876e-01,1.211437041112049459e-02,5.317146867975108826e-01,-1.406973917238492633e-01,1.546441557521019750e+00,1.407000000000000028e+01,1.000000000000000000e+00
-1.003960565221079904e+00,1.754167926313673076e-01,-6.357463214354047362e-03,5.516682806131696370e-01,-1.514534138729844159e-01,1.525335672162992928e+00,1.407499999999999929e+01,1.000000000000000000e+00
-9.737017172256122732e-01,1.994229049839602308e-01,-2.355497154801980408e-02,6.218405104198196920e-01,-1.676669985636047855e-01,1.495542718699869544e+00,1.408000000000000007e+01,1.000000000000000000e+00
-9.512670218265381061e-01,2.179934166821828057e-01,-3.396265502321413332e-02,6.913885036421730801e-01,-1.800660351158071548e-01,1.450424624380098226e+00,1.408500000000000085e+01,1.000000000000000000e+00
-9.140557224861162178e-01,2.475947683184151205e-01,-3.347626965460406140e-02,7.594021092048864885e-01,-1.908648129010055705e-01,1.386988489011715231e+00,1.408999999999999986e+01,1.000000000000000000e+00
-8.835621688142163421e-01,2.635035400109037584e-01,-2.120051141618051888e-02,8.094019649456654086e-01,-1.916906727728076576e-01,1.340024834197435011e+00,1.409500000000000064e+01,1.000000000000000000e+00
-8.494666142594403668e-01,2.727554424274222233e-01,-3.304662326579675506e-03,8.133317865483239428e-01,-1.934110529630127528e-01,1.295272065529935901e+00,1.409999999999999964e+01,1.000000000000000000e+00
-8.133690862159954627e-01,2.739331408870185336e-01,2.179188837954917218e-02,8.037451785373423974e-01,-1.926784217357635498e-01,1.263345235186089655e+00,1.410500000000000043e+01,1.000000000000000000e+00
-7.869509144280599777e-01,2.722160626455270016e-01,4.797942270342112764e-02,7.770468004546482454e-01,-1.904670504680754106e-01,1.237879943939758087e+00,1.410999999999999943e+01,1.000000000000000000e+00
-7.672383853544565424e-01,2.630139471549283736e-01,7.081997842958512313e-02,7.462907282190929248e-01,-1.900033398099857385e-01,1.211214274062600849e+00,1.411500000000000021e+01,1.000000000000000000e+00
-7.357795213667911449e-01,2.452868253646275920e-01,9.520604912889592264e-02,6.995815045421769351e-01,-1.860535321204180581e-01,1.165821670615106775e+00,1.411999999999999922e+01,1.000000000000000000e+00
-7.199166541164077060e-01,2.193114336556949706e-01,9.792837748402399844e-02,6.407615505775299258e-01,-1.838571057464967184e-01,1.109479594326903129e+00,1.412500000000000000e+01,1.000000000000000000e+00
-7.101407449344580014e-01,1.938061601219303043e-01,1.021974992294112095e-01,5.732845801086394744e-01,-1.877449549536165385e-01,1.058619541105897177e+00,1.413000000000000078e+01,1.000000000000000000e+00
-7.075298934721268029e-01,1.653830206473707320e-01,9.964305600255472795e-02,4.975663077289338987e-01,-1.963237887591874342e-01,1.008787643770487463e+00,1.413499999999999979e+01,1.000000000000000000e+00
-7.060784399184334426e-01,1.387223924000747510e-01,9.130541562926366983e-02,3.685530760220378510e-01,-2.081727766387883594e-01,9.389700747626974486e-01,1.414000000000000057e+01,1.000000000000000000e+00
-7.053323583160353571e-01,1.229787666241229233e-01,8.676468904882586597e-02,2.738536253458297987e-01,-2.221308066060659059e-01,8.901828177539303777e-01,1.414499999999999957e+01,1.000000000000000000e+00
-7.084691392109558894e-01,1.203765364785163994e-01,8.184006270416742390e-02,2.008219962712201878e-01,-2.323921861482354523e-01,8.378241441190372729e-01,1.415000000000000036e+01,1.000000000000000000e+00
-7.076095731030420666e-01,1.307370251564402841e-01,7.226537230283783253e-02,1.477811687056088397e-01,-2.383914177771341292e-01,7.829532838995416633e-01,1.415499999999999936e+01,1.000000000000000000e+00
-7.046628410868457371e-01,1.515136484678849538e-01,6.365850048357939162e-02,1.096802738470486205e-01,-2.410421338281448778e-01,7.404460365663929622e-01,1.416000000000000014e+01,1.000000000000000000e+00
-7.033939052166456873e-01,1.720990931645431377e-01,6.131675200316177854e-02,9.236295989533699347e-02,-2.403245121240615845e-01,7.107668199242564988e-01,1.416499999999999915e+01,1.000000000000000000e+00
-6.938355045597470738e-01,1.971940341964900367e-01,5.961606910597191250e-02,1.256834675242001487e-01,-2.325937948929423793e-01,6.681432047919879658e-01,1.416999999999999993e+01,1.000000000000000000e+00
-6.871201738366905509e-01,2.101069130407316188e-01,5.840456438890374857e-02,1.614516894521631496e-01,-2.249674135879289050e-01,6.367463072316339456e-01,1.417500000000000071e+01,1.000000000000000000e+00
-6.826115009843638504e-01,2.286587034755124814e-01,5.656923326156818727e-02,2.192264345219821220e-01,-2.255295651772436516e-01,6.086400698100793427e-01,1.417999999999999972e+01,1.000000000000000000e+00
-6.741524790491409957e-01,2.420456018292740374e-01,4.923535306363663322e-02,2.784522195890725138e-01,-2.170704484269576073e-01,5.769159162413066699e-01,1.418500000000000050e+01,1.000000000000000000e+00
-6.605492780029559308e-01,2.571907847656205726e-01,4.145499772768047181e-02,3.163407406858594895e-01,-2.019840567322661040e-01,5.316705198677563748e-01,1.418999999999999950e+01,1.000000000000000000e+00
-6.602881461376712835e-01,2.658902473710950121e-01,3.577927683998503861e-02,3.402161324275065346e-01,-1.988318398036864887e-01,5.002147160435901352e-01,1.419500000000000028e+01,1.000000000000000000e+00
-6.437963813041156502e-01,2.703071976525123765e-01,3.104658436052843556e-02,3.715913985815384457e-01,-1.942765880775262910e-01,4.434489083690349442e-01,1.419999999999999929e+01,1.000000000000000000e+00
-6.414145027890010287e-01,2.890582590090848281e-01,2.758129925618756084e-02,3.896150481614178984e-01,-2.012302875518798828e-01,4.024485599867907437e-01,1.420500000000000007e+01,1.000000000000000000e+00
-6.485340122637398563e-01,3.211295649355108695e-01,1.584975319066250429e-02,4.039232395464844583e-01,-1.978801656576660017e-01,3.627875713260621526e-01,1.421000000000000085e+01,1.000000000000000000e+00
-6.459947368374305832e-01,3.455924235770939656e-01,1.819360118578341665e-02,3.960480456936056881e-01,-1.963501879446372389e-01,3.235023299153756970e-01,1.421499999999999986e+01,1.000000000000000000e+00
-6.581763363792768606e-01,3.695183464323512079e-01,1.631957040343001014e-02,3.740177225032361163e-01,-1.899639324116481620e-01,2.474370006903497121e-01,1.422000000000000064e+01,1.000000000000000000e+00
-6.735579471899217907e-01,3.936301992556046070e-01,1.534517129866634112e-02,3.150306605329131759e-01,-1.958885815686220722e-01,1.709614711922964325e-01,1.422499999999999964e+01,1.000000000000000000e+00
-6.904444872397247357e-01,4.153584739849232044e-01,6.713828782342204718e-03,2.600127925847491306e-01,-2.124791637439520930e-01,1.000659361427588129e-01,1.423000000000000043e+01,1.000000000000000000e+00
-7.115394665836998200e-01,4.105551129053668369e-01,-3.303120150404501021e-03,2.419628112457505309e-01,-2.380512385685014387e-01,7.080762715517981143e-02,1.423499999999999943e+01,1.000000000000000000e+00
-7.415980923339797748e-01,4.048682923667444311e-01,-2.105395344750413122e-02,2.756906655952319207e-01,-2.715571395392668008e-01,5.665405715932539388e-02,1.424000000000000021e+01,1.000000000000000000e+00
-7.723940374806816944e-01,4.204602257645440044e-01,-3.261276815197296924e-02,3.367778772701969237e-01,-3.067105519032451433e-01,4.237542458167861681e-02,1.424499999999999922e+01,1.000000000000000000e+00
-7.960558144016091076e-01,4.340608308666680792e-01,-3.556887006392374373e-02,3.779322510477070018e-01,-3.292335071338511332e-01,3.998399182586425543e-02,1.425000000000000000e+01,1.000000000000000000e+00
-8.160793500981499138e-01,4.454142081689970167e-01,-3.300026185043596072e-02,3.811244811006785360e-01,-3.485875253348004743e-01,5.021462452065970222e-02,1.425500000000000078e+01,1.000000000000000000e+00
-8.314048542735550384e-01,4.402963832482158502e-01,-2.773099967623906398e-02,3.865701826332720303e-01,-3.565878014463517154e-01,7.984238396895806944e-02,1.425999999999999979e+01,1.000000000000000000e+00
-8.349677362842820028e-01,4.471311485714073441e-01,-2.883847967014153274e-02,3.509470230693723103e-01,-3.588288724422454834e-01,9.227015751195359605e-02,1.426500000000000057e+01,1.000000000000000000e+00
-8.333018911297225273e-01,4.699301169799136035e-01,-3.155136696584814882e-02,2.155146952674850958e-01,-3.414613315814071237e-01,8.304117110773666377e-02,1.426999999999999957e+01,1.000000000000000000e+00
-8.155569414945682549e-01,4.880453517043060740e-01,-3.569781287565948480e-02,7.418491713721318825e-02,-3.504795495630853575e-01,1.066376320080787976e-01,1.427500000000000036e+01,1.000000000000000000e+00
-8.063006709400983851e-01,5.335080594562836565e-01,-3.830730252754467602e-02,-1.179102569453388538e-01,-3.514987230300903320e-01,1.401171294597878814e-01,1.427999999999999936e+01,1.000000000000000000e+00
-7.991260937779727236e-01,5.701394257841660984e-01,-3.990008784251111718e-02,-3.765830217883824882e-01,-3.459629746652678195e-01,1.811599110282454128e-01,1.428500000000000014e+01,1.000000000000000000e+00
-7.925147698775715233e-01,6.116785535992672607e-01,-2.943177645323427974e-02,-5.625815486553983336e-01,-3.384218818589229683e-01,2.171967291858428184e-01,1.428999999999999915e+01,1.000000000000000000e+00
-7.922060622451412293e-01,6.450830312577321424e-01,-8.882330499387464454e-03,-6.675743270643494931e-01,-3.198436147711030686e-01,2.450772698888882550e-01,1.429499999999999993e+01,1.000000000000000000e+00
-7.903354492095262529e-01,6.982222281089331961e-01,1.836413392962998881e-02,-7.144691805164407050e-01,-2.919039311176626628e-01,2.573105899443537403e-01,1.430000000000000071e+01,1.000000000000000000e+00
-7.912824848109478726e-01,7.315276837575226399e-01,4.478963877267298083e-02,-7.420078528463412981e-01,-2.639932724418435628e-01,2.577880965508630440e-01,1.430499999999999972e+01,1.000000000000000000e+00
-7.990523813770427086e-01,7.554737185757275375e-01,7.894658103578222619e-02,-7.586818450415003801e-01,-2.190101600378887015e-01,2.324289637341878378e-01,1.431000000000000050e+01,1.000000000000000000e+00
-8.071636707410876355e-01,7.538931609744905504e-01,1.026269267579523886e-01,-7.815599752730403305e-01,-1.766921101350619194e-01,2.054063712039110035e-01,1.431499999999999950e+01,1.000000000000000000e+00
-8.253110602677788954e-01,7.434419634768683061e-01,1.184063067725728835e-01,-7.815359674224471309e-01,-1.378392212348499846e-01,1.711462422345177425e-01,1.432000000000000028e+01,1.000000000000000000e+00
-8.564223057186973742e-01,7.446117465942462266e-01,1.342047250819977111e-01,-7.364603955360392584e-01,-1.070847074366114426e-01,1.396579396159272624e-01,1.432499999999999929e+01,1.000000000000000000e+00
-8.798193516452453844e-01,7.373826131333898193e-01,1.448758505165164134e-01,-6.393115056532321372e-01,-8.904479121091660176e-02,1.250250725956797981e-01,1.433000000000000007e+01,1.000000000000000000e+00
-8.966523361461357089e-01,7.126358916655588516e-01,1.469232304907984177e-01,-4.988414583807026514e-01,-8.392074687186432125e-02,1.179767545580839988e-01,1.433500000000000085e+01,1.000000000000000000e+00
-9.147543190712562611e-01,6.609329987495849990e-01,1.562683821100754877e-01,-2.615254739018392227e-01,-8.272591233253479004e-02,1.121448779502093873e-01,1.433999999999999986e+01,1.000000000000000000e+00
-9.207099575627075705e-01,6.152995982581750400e-01,1.671404902392947256e-01,-1.098463473170685212e-01,-9.073206882637963044e-02,9.467331789348021331e-02,1.434500000000000064e+01,1.000000000000000000e+00
-9.190065124185233802e-01,5.707567306003171748e-01,1.763398521646623585e-01,3.148346317682106099e-02,-1.033692041427445724e-01,5.907605730196392735e-02,1.434999999999999964e+01,1.000000000000000000e+00
-9.141519063486882590e-01,5.474725699424727310e-01,1.804623341835618344e-01,1.472670214176417525e-01,-1.164181706037863417e-01,2.647152299231200073e-02,1.435500000000000043e+01,1.000000000000000000e+00
-9.071573516330226905e-01,5.298446361640130053e-01,1.755329982320101290e-01,2.629062825610810616e-01,-1.259075321964423511e-01,-5.179189696253671746e-03,1.435999999999999943e+01,1.000000000000000000e+00
-8.976871008376448025e-01,5.241916029919861941e-01,1.634739101776305492e-01,3.716395877841625062e-01,-1.315937042236328125e-01,-3.487276104873274218e-02,1.436500000000000021e+01,1.000000000000000000e+00
-8.855214709534038331e-01,5.194795331485264622e-01,1.583528396353464651e-01,4.483744161851696552e-01,-1.304999266630143817e-01,-6.045083576391543922e-02,1.436999999999999922e+01,1.000000000000000000e+00
-8.755972679911974144e-01,5.077032894775538319e-01,1.525500557430236048e-01,5.223503189308403849e-01,-1.040756056025973486e-01,-7.438950857704619557e-02,1.437500000000000000e+01,1.000000000000000000e+00
-8.606628395858393343e-01,4.973811438075686486e-01,1.471104835052623461e-01,5.533414720456866220e-01,-8.408875658984182877e-02,-8.811529659539509007e-02,1.438000000000000078e+01,1.000000000000000000e+00
-8.471262416013161101e-01,4.952886473988085125e-01,1.422281817408234672e-01,5.486653599594626396e-01,-5.774430339393091249e-02,-9.791300047527305705e-02,1.438499999999999979e+01,1.000000000000000000e+00
-8.359684652590144704e-01,4.987840796492303830e-01,1.290554629371906126e-01,4.968888143580671990e-01,-3.126035165837928037e-02,-1.039095665707257254e-01,1.439000000000000057e+01,1.000000000000000000e+00
-8.396355057942586075e-01,5.028928042269307230e-01,1.171034603195621748e-01,4.268966344445719319e-01,-1.064593903720378876e-02,-1.025271431723802362e-01,1.439499999999999957e+01,1.000000000000000000e+00
-8.474489594270431247e-01,5.077171184505292478e-01,1.069702130553460417e-01,3.022383772216741260e-01,-8.181486978652924291e-03,-8.294511726741252144e-02,1.440000000000000036e+01,1.000000000000000000e+00
-8.538939891181294151e-01,5.143925892875750305e-01,8.781232911191241830e-02,1.975298128061977465e-01,-6.132303679497003342e-03,-5.567894459974130628e-02,1.440499999999999936e+01,1.000000000000000000e+00
-8.604794173691741044e-01,5.183557040289513695e-01,7.074077756822720608e-02,1.809830665588378906e-01,-6.980855017900466919e-03,-2.411167744968226168e-02,1.441000000000000014e+01,1.000000000000000000e+00
-8.612482185257082090e-01,5.323490066256555409e-01,5.914593996415448696e-02,1.868743199018219614e-01,-9.337354379045969058e-03,-4.720344482952399008e-03,1.441499999999999915e+01,1.000000000000000000e+00
-8.620475541398198160e-01,5.441458053595152888e-01,5.069841723661603489e-02,2.062896673386844792e-01,-6.011283978654665197e-03,1.019922986681790454e-02,1.441999999999999993e+01,1.000000000000000000e+00
-8.595444681987060020e-01,5.439360989137433933e-01,4.145516669198108517e-02,2.222221372978001042e-01,-8.736467781248112574e-03,2.200504533728506878e-02,1.442500000000000071e+01,1.000000000000000000e+00
-8.619402589840028384e-01,5.485887404264296885e-01,3.609638829173061197e-02,2.188367835116175331e-01,-9.290590655114779745e-03,2.629659591751198552e-02,1.442999999999999972e+01,1.000000000000000000e+00
-8.728332414879361734e-01,5.651131567640708120e-01,3.164620476113248065e-02,2.035971383527420964e-01,1.476564344816730379e-03,2.630432564069000445e-02,1.443500000000000050e+01,1.000000000000000000e+00
-8.850380197067833077e-01,5.620860134027027000e-01,2.563418817981472780e-02,1.760790729801096632e-01,-6.017273304726525329e-03,2.105307364742197568e-02,1.443999999999999950e+01,1.000000000000000000e+00
-8.902947554578739542e-01,5.556278700353073363e-01,2.453979136485884283e-02,1.620958050481981494e-01,-1.853796085777129760e-02,1.735718531830468883e-02,1.444500000000000028e+01,1.000000000000000000e+00
-8.939822781989110734e-01,5.572301660469184403e-01,2.612200087187018308e-02,1.620746213682604797e-01,-3.685002484671000972e-02,7.903460179349043602e-03,1.444999999999999929e+01,1.000000000000000000e+00
-8.940641541502067913e-01,5.562935195346880857e-01,2.678367595490348946e-02,1.543525764759425267e-01,-4.586355475321239605e-02,5.696696997423787885e-03,1.445500000000000007e+01,1.000000000000000000e+00
-8.914711860639406016e-01,5.427318420466207272e-01,3.018892128799053817e-02,1.746275524619059216e-01,-7.680966136331149330e-02,-1.016575793793247223e-02,1.446000000000000085e+01,1.000000000000000000e+00
-8.897084517960507366e-01,5.353933491657343335e-01,3.569268493374688073e-02,1.695139819164925565e-01,-9.627355308012117141e-02,-1.713140897512613336e-02,1.446499999999999986e+01,1.000000000000000000e+00
-8.859002938104207914e-01,5.217339078563295596e-01,4.450628926058572410e-02,1.617047408403853304e-01,-1.125515351376733530e-01,-2.878217756748416289e-02,1.447000000000000064e+01,1.000000000000000000e+00
-8.815948383980478642e-01,5.182200574341755406e-01,5.498321347725021457e-02,1.536132603702931032e-01,-1.283475292645402110e-01,-4.630527902548686736e-02,1.447499999999999964e+01,1.000000000000000000e+00
-8.720076983638299639e-01,5.161203263796637630e-01,6.834598623211658730e-02,1.634053093197178064e-01,-1.367630966504045364e-01,-6.726189424607172118e-02,1.448000000000000043e+01,1.000000000000000000e+00
-8.604967949889497092e-01,5.142884113988581696e-01,7.822057691911823984e-02,1.651879566979163327e-01,-1.352587789297103882e-01,-7.735584229370440212e-02,1.448499999999999943e+01,1.000000000000000000e+00
-8.415976843004404628e-01,5.049707170875865625e-01,9.412459842868099724e-02,1.603558285916903969e-01,-1.287779406160732831e-01,-9.821955239109175784e-02,1.449000000000000021e+01,1.000000000000000000e+00
-8.378471064681173308e-01,5.029454856544782748e-01,1.002823311639145509e-01,1.436580555029638717e-01,-1.133394275206102142e-01,-1.164151649324002558e-01,1.449499999999999922e+01,1.000000000000000000e+00
-8.293710218707346371e-01,4.924815059762518987e-01,1.022776779367254585e-01,1.051816825008125150e-01,-1.023774736973826066e-01,-1.512500198935773366e-01,1.450000000000000000e+01,1.000000000000000000e+00
-8.247644733202963430e-01,4.855910518997472725e-01,1.004617381828832173e-01,8.233231948541405720e-02,-9.178717560584948032e-02,-1.732650010667339813e-01,1.450500000000000078e+01,1.000000000000000000e+00
-8.229586325590032558e-01,4.911088578468629784e-01,9.702398675730451727e-02,6.847730145966113291e-02,-8.031162645632715369e-02,-1.775927245616912842e-01,1.450999999999999979e+01,1.000000000000000000e+00
-8.201994868032339570e-01,5.055508681825652273e-01,9.935814673363924099e-02,6.314559406914385664e-02,-6.780777650638360188e-02,-1.802210639549233495e-01,1.451500000000000057e+01,1.000000000000000000e+00
-8.198180281195454056e-01,5.192898172166570125e-01,9.317147293936021979e-02,5.534356866192158275e-02,-5.951371788978576660e-02,-1.795517239239461105e-01,1.451999999999999957e+01,1.000000000000000000e+00
-8.182171803580726710e-01,5.172084288741209956e-01,6.976285961038303229e-02,5.254895790267326283e-02,-5.653757976421353026e-02,-1.656569334479237043e-01,1.452500000000000036e+01,1.000000000000000000e+00
-8.162567275141809908e-01,5.108522551744004714e-01,4.482116194966299233e-02,6.472534557663253696e-02,-5.044938913568235150e-02,-1.521636407558112081e-01,1.452999999999999936e+01,1.000000000000000000e+00
-8.105447110588642756e-01,5.000484943823210182e-01,1.761203513773292387e-02,9.154703625844766435e-02,-4.392649535770366126e-02,-1.679353463927281409e-01,1.453500000000000014e+01,1.000000000000000000e+00
-8.032037181971550810e-01,4.753810769625058108e-01,-2.032650395823007786e-02,1.232080685435129330e-01,-3.022937252372534522e-02,-2.113540233812957192e-01,1.453999999999999915e+01,1.000000000000000000e+00
-7.910287699787597049e-01,4.581165525604988797e-01,-4.480276919041395467e-02,1.494001266202865108e-01,-1.668475524193946402e-02,-2.609047949534593069e-01,1.454499999999999993e+01,1.000000000000000000e+00
-7.727658195602831182e-01,4.518202498405325951e-01,-5.981073607312279578e-02,1.755888913010078822e-01,-1.580942697042922191e-04,-3.275832926086555963e-01,1.455000000000000071e+01,1.000000000000000000e+00
-7.474692887187992518e-01,4.483487036533276293e-01,-7.157805885231208198e-02,2.044724289147155649e-01,1.810426727938866526e-02,-3.922760051093600597e-01,1.455499999999999972e+01,1.000000000000000000e+00
-7.194745779316336076e-01,4.366145032455595043e-01,-7.915223681605501604e-02,1.838854727241788223e-01,4.603457672325896033e-02,-4.776046857162514758e-01,1.456000000000000050e+01,1.000000000000000000e+00
-6.965487319827874391e-01,4.225041861100536922e-01,-8.828425619733934471e-02,1.549315122291899383e-01,6.984265762216117224e-02,-5.460866790578909891e-01,1.456499999999999950e+01,1.000000000000000000e+00
-6.718396589484442183e-01,4.356605183569811079e-01,-1.105672135177175192e-01,6.427586011696337365e-02,1.080525644112550615e-01,-6.353451331605095564e-01,1.457000000000000028e+01,1.000000000000000000e+00
-6.695690944593241101e-01,4.756644885044462034e-01,-1.295168572444893584e-01,-7.698344185574632070e-02,1.539700259342044464e-01,-7.129428326045934572e-01,1.457499999999999929e+01,1.000000000000000000e+00
-7.240105747620365628e-01,5.958724545725831989e-01,-1.464121007655109497e-01,-3.622706725146462858e-01,1.833977825746677115e-01,-7.638082569742378203e-01,1.458000000000000007e+01,1.000000000000000000e+00
-8.571708974167916439e-01,7.656930836619236791e-01,-1.671594292526923931e-01,-6.490018132755970282e-01,2.072146830125874695e-01,-7.500714438156778074e-01,1.458500000000000085e+01,1.000000000000000000e+00
-1.100439393478607197e+00,9.956458883659101700e-01,-1.525363167166026990e-01,-8.797539828720050137e-01,2.097598645364510128e-01,-5.876629081923769871e-01,1.458999999999999986e+01,1.000000000000000000e+00
-1.405094501239507077e+00,1.173817449369175758e+00,-8.908657544841691589e-02,-9.782902907726859221e-01,1.862132402880176396e-01,-2.876258854741681747e-01,1.459500000000000064e+01,1.000000000000000000e+00
-1.650816555805206143e+00,1.126138507131722921e+00,1.222729811537877354e-02,-9.196993969729542195e-01,1.566546404488979305e-01,-6.927087858308908497e-02,1.459999999999999964e+01,1.000000000000000000e+00
-1.946601991261480036e+00,7.975684770909188259e-01,1.584228646322892176e-01,-8.363040226977085378e-01,9.802511664491218857e-02,1.860476260081819072e-02,1.460500000000000043e+01,1.000000000000000000e+00
-1.999833485421383283e+00,4.090309072501431276e-01,2.240826894639138256e-01,-8.069741614180401257e-01,7.335511407869514666e-02,-1.435114482992417839e-01,1.460999999999999943e+01,1.000000000000000000e+00
-2.000147509457152584e+00,1.470245850552177325e-01,1.708362196796666954e-01,-6.058767972981805583e-01,6.869187451054162286e-02,-4.324765932492653508e-01,1.461500000000000021e+01,1.000000000000000000e+00
-1.855263804529659444e+00,5.551808051764973995e-02,3.230659340264612628e-02,-2.354764849437900043e-01,5.779353352836950897e-02,-7.288872654610648594e-01,1.461999999999999922e+01,1.000000000000000000e+00
-1.528297110818418458e+00,1.328437080912158730e-01,-6.244859390746119315e-02,9.506843548180737846e-02,4.645862728053520158e-02,-9.982526467602308440e-01,1.462500000000000000e+01,1.000000000000000000e+00
-1.147960160693849208e+00,2.798304964227619207e-01,-4.944682728874137678e-02,4.367116898915161527e-01,7.136219527275376728e-02,-1.179278613120594343e+00,1.463000000000000078e+01,1.000000000000000000e+00
-7.722150056959871112e-01,2.601997588760367464e-01,-1.026833277598901938e-02,4.917630309630883212e-01,1.126576839412874176e-01,-1.207628449706899865e+00,1.463499999999999979e+01,1.000000000000000000e+00
-5.457527378663346029e-01,2.752840134295671259e-02,-2.959127464740929359e-02,1.187095603697457535e-01,1.594854381576254754e-01,-1.244266696387295701e+00,1.464000000000000057e+01,1.000000000000000000e+00
-3.534531360076176298e-01,-3.768511498643890567e-01,-1.704961681597016443e-01,-9.155540331861231618e-01,2.030754925124334809e-01,-1.323594458205296975e+00,1.464499999999999957e+01,1.000000000000000000e+00
-2.813668256171362736e-01,-5.882066498505139629e-01,-2.859676706792401712e-01,-1.783748477133169974e+00,2.258463333612891200e-01,-1.334422077462211531e+00,1.465000000000000036e+01,1.000000000000000000e+00
-3.016147637543076243e-01,-5.436882195457812816e-01,-3.032576989799589118e-01,-2.384447284201492767e+00,2.108994701313929854e-01,-1.259839080059262262e+00,1.465499999999999936e+01,1.000000000000000000e+00
-4.138419576235174979e-01,-3.052399455793854965e-01,-1.954555655233513600e-01,-2.431201361035475017e+00,1.590285216380503130e-01,-1.172422689455145939e+00,1.466000000000000014e+01,1.000000000000000000e+00
-5.630386643345629549e-01,-5.993000764709052047e-02,-1.281381494984496633e-02,-2.024081961830703769e+00,1.005927954763535526e-01,-1.117417689156644522e+00,1.466499999999999915e+01,1.000000000000000000e+00
-8.151321816067002013e-01,7.534361749474055570e-02,2.643777279340325803e-01,-1.207317923449115815e+00,4.263921565755483811e-02,-1.149408972675610485e+00,1.466999999999999993e+01,1.000000000000000000e+00
-1.006276744617819130e+00,5.402805350559239383e-02,4.204802792257587574e-01,-7.224995670961339433e-01,3.917871303783780623e-02,-1.215226553036937940e+00,1.467500000000000071e+01,1.000000000000000000e+00
-1.176397155030421970e+00,-7.155592369546796491e-03,5.643395465151611612e-01,-4.039427146291021953e-01,6.104492262481549247e-02,-1.284709954303514312e+00,1.467999999999999972e+01,1.000000000000000000e+00
-1.339670500585822488e+00,-8.795882926574462302e-02,7.042578211686910672e-01,-2.003321433184843681e-01,8.443500923559493776e-02,-1.360941851829933658e+00,1.468500000000000050e+01,1.000000000000000000e+00
-1.435103343104221496e+00,-1.442374702574135692e-01,8.019243663254719268e-01,-7.503111316181729218e-02,8.623203402910657733e-02,-1.387685128155432768e+00,1.468999999999999950e+01,1.000000000000000000e+00
-1.465693153667538162e+00,-2.065673043004672416e-01,8.517394048029733877e-01,1.965251844182097987e-02,6.877210116693037445e-02,-1.401687421244112830e+00,1.469500000000000028e+01,1.000000000000000000e+00
-1.424929112519679686e+00,-2.437807797076818606e-01,8.479971492134354971e-01,1.104431915286073207e-01,3.722597391212617568e-02,-1.386539316876834516e+00,1.469999999999999929e+01,1.000000000000000000e+00
-1.358751776486804230e+00,-2.528861293744485983e-01,8.060293872624797462e-01,1.071244929686308578e-01,1.785190462284029153e-02,-1.321769043660875775e+00,1.470500000000000007e+01,1.000000000000000000e+00
-1.263693274410104150e+00,-2.097357305935822480e-01,7.166733347805492871e-01,6.495058781263017555e-02,7.869623843772800831e-03,-1.231035579227811372e+00,1.471000000000000085e+01,1.000000000000000000e+00
-1.146574739604484972e+00,-1.458156826932422157e-01,5.695107386598030619e-01,-3.782515132751396170e-02,1.296104993795342206e-02,-1.070322648121988962e+00,1.471499999999999986e+01,1.000000000000000000e+00
-1.059726633607381396e+00,-9.298405723000373324e-02,4.248697435853259208e-01,-1.007202294386381897e-01,2.433512874935962050e-02,-9.276002563906655674e-01,1.472000000000000064e+01,1.000000000000000000e+00
-9.765187774209412863e-01,-1.165775657945495453e-02,2.559880921725666836e-01,-1.234340626360185544e-01,4.857148565093090398e-02,-7.827067465180518324e-01,1.472499999999999964e+01,1.000000000000000000e+00
-9.323714868307195758e-01,6.444509195653905231e-02,1.513507172924287159e-01,-5.482712317611964509e-02,7.346654608910803408e-02,-7.150922519177819181e-01,1.473000000000000043e+01,1.000000000000000000e+00
-9.060692061335665626e-01,1.395966344905760215e-01,8.123043681111997982e-02,5.984227165223320044e-02,1.037480292507174662e-01,-6.966079814895898004e-01,1.473499999999999943e+01,1.000000000000000000e+00
-8.832980933526295431e-01,2.010538227553611279e-01,3.630200493395061706e-02,2.099346274886624841e-01,1.256637053540649585e-01,-7.183074008373270258e-01,1.474000000000000021e+01,1.000000000000000000e+00
-8.869601724531137599e-01,2.298457620389932343e-01,6.853970099776555969e-03,3.055062450303092092e-01,1.341372286855149198e-01,-7.829470340745618984e-01,1.474499999999999922e+01,1.000000000000000000e+00
-8.963314386138185874e-01,2.189553858439671208e-01,-1.440638093651742556e-03,3.410982033303833205e-01,1.337790497962166314e-01,-8.406773935894574779e-01,1.475000000000000000e+01,1.000000000000000000e+00
-9.272511325959371664e-01,1.718233810453554111e-01,2.740281195150879191e-03,2.716958201142019580e-01,1.287099339988568847e-01,-9.211028487348320581e-01,1.475500000000000078e+01,1.000000000000000000e+00
-9.536673937859305727e-01,1.421752410288452673e-01,1.604097987239028536e-02,1.329206328311302310e-01,1.054882086587267953e-01,-9.767767543614309655e-01,1.475999999999999979e+01,1.000000000000000000e+00
-9.738300629371404726e-01,1.263148315331332483e-01,2.733905835755987696e-02,-5.882015538817229883e-02,7.423580289194564585e-02,-1.020834911506135700e+00,1.476500000000000057e+01,1.000000000000000000e+00
-9.894126493726939087e-01,1.171074402834476613e-01,4.773642563193929156e-02,-2.602734279333872025e-01,4.228080184689170934e-02,-1.031557202339172363e+00,1.476999999999999957e+01,1.000000000000000000e+00
-9.908822583965155584e-01,1.141777335026473855e-01,6.148933149531066178e-02,-4.020280431800312693e-01,2.253312955804142106e-02,-1.039888670907831214e+00,1.477500000000000036e+01,1.000000000000000000e+00
-9.996764395989863328e-01,1.080309673287667138e-01,7.649757071969123801e-02,-5.728670229586205753e-01,2.625859242197410050e-03,-1.035007020897425578e+00,1.477999999999999936e+01,1.000000000000000000e+00
-1.004223463808338268e+00,1.148196454143174672e-01,8.327540059828061891e-02,-6.721647060182163180e-01,-4.066569587112206854e-03,-1.035782154386662546e+00,1.478500000000000014e+01,1.000000000000000000e+00
-1.010902868775819918e+00,1.282916520113129011e-01,8.732345261815196991e-02,-7.293748407481872587e-01,-2.533137104969700876e-05,-1.038793723777349465e+00,1.478999999999999915e+01,1.000000000000000000e+00
-1.019006174752586702e+00,1.491392524977870893e-01,9.497849930179734501e-02,-7.654930711015622835e-01,4.604146415413386782e-03,-1.038592500652067763e+00,1.479499999999999993e+01,1.000000000000000000e+00
-1.021399398640316036e+00,1.654173378114082993e-01,1.048590545808499308e-01,-7.732919279476213603e-01,9.352274315126713616e-03,-1.039150560645303756e+00,1.480000000000000071e+01,1.000000000000000000e+00
-1.024695627436560841e+00,1.678894862694973178e-01,1.181284110316890429e-01,-7.701886840914080601e-01,9.349295311782360868e-03,-1.048415569331507813e+00,1.480499999999999972e+01,1.000000000000000000e+00
-1.013623142265893451e+00,1.608166695986956996e-01,1.332486983367322519e-01,-7.604258351147656914e-01,1.331852413704829284e-02,-1.057730341925512185e+00,1.481000000000000050e+01,1.000000000000000000e+00
-1.008511977790667258e+00,1.466322883163428126e-01,1.546904056702915475e-01,-7.020565027263668822e-01,1.767617799140546245e-02,-1.076765557447370680e+00,1.481499999999999950e+01,1.000000000000000000e+00
-9.991201502549857949e-01,1.367524426095922951e-01,1.750689874911551536e-01,-6.418271697980727497e-01,1.875096419729995259e-02,-1.093176860984975907e+00,1.482000000000000028e+01,1.000000000000000000e+00
-9.906160762210690640e-01,1.374590515496236232e-01,1.971629298421460064e-01,-5.816894812137147763e-01,1.547698827039221611e-02,-1.110713367059090295e+00,1.482499999999999929e+01,1.000000000000000000e+00
-9.832465495537396905e-01,1.338070206110339444e-01,2.099162678909781143e-01,-5.468417740258555426e-01,1.299392757572870663e-02,-1.116861973193653990e+00,1.483000000000000007e+01,1.000000000000000000e+00
-9.624044864541655420e-01,1.149454846764423471e-01,2.196328801066219083e-01,-4.972560986791108584e-01,1.277032107393442917e-02,-1.094875892044379961e+00,1.483500000000000085e+01,1.000000000000000000e+00
-9.476685914994391613e-01,9.701274345809968169e-02,2.232957850530891686e-01,-4.773000591610626619e-01,1.670864853271401829e-02,-1.073858159899484965e+00,1.483999999999999986e+01,1.000000000000000000e+00
-9.328420403816815032e-01,8.751036898929810681e-02,2.271192128630327434e-01,-4.424958966451966735e-01,2.805318451776494387e-02,-1.045917733757571577e+00,1.484500000000000064e+01,1.000000000000000000e+00
-9.194776714627415082e-01,9.138330747503808915e-02,2.329449421157349653e-01,-3.961238892361336195e-01,3.661207928163520697e-02,-1.021823161097933363e+00,1.484999999999999964e+01,1.000000000000000000e+00
-9.102507564016624197e-01,9.787844885468245659e-02,2.390453847298900925e-01,-3.192628284700451125e-01,5.248454896704245198e-02,-9.938207027412847561e-01,1.485500000000000043e+01,1.000000000000000000e+00
-9.109705295724104257e-01,1.039970545190112561e-01,2.468756186951576170e-01,-2.581644394132684983e-01,6.122350122384357524e-02,-9.721152538296266021e-01,1.485999999999999943e+01,1.000000000000000000e+00
-9.183688011435546805e-01,1.127314412028725399e-01,2.559196374962955933e-01,-2.007261521739272248e-01,7.592805304944505451e-02,-9.547151788823740048e-01,1.486500000000000021e+01,1.000000000000000000e+00
-9.257857262189261860e-01,1.196378096283450404e-01,2.683838141550762280e-01,-1.403410232778961042e-01,8.741470098886196249e-02,-9.455640699116715231e-01,1.486999999999999922e+01,1.000000000000000000e+00
-9.349248984153833986e-01,1.266022233505149919e-01,2.755174815115346010e-01,-8.047418546487843105e-02,9.765459992981097292e-02,-9.319915185464580087e-01,1.487500000000000000e+01,1.000000000000000000e+00
-9.426858468907550748e-01,1.287433658467568021e-01,2.768050586624557496e-01,-8.194429853685342505e-03,1.094489666428760111e-01,-9.212358456671916329e-01,1.488000000000000078e+01,1.000000000000000000e+00
-9.477827457289281776e-01,1.331818800072333275e-01,2.748632591810767911e-01,3.495511251186603913e-02,1.160511044917268142e-01,-9.167896804442889902e-01,1.488499999999999979e+01,1.000000000000000000e+00
-9.535855911172439470e-01,1.374075212302862670e-01,2.663102899293242620e-01,9.289200428589826364e-02,1.277494548558904264e-01,-9.142745137214660645e-01,1.489000000000000057e+01,1.000000000000000000e+00
-9.562276921823171794e-01,1.430588172538412861e-01,2.493155666348139399e-01,8.368918967169297618e-02,1.336573571895669776e-01,-8.952207264157053812e-01,1.489499999999999957e+01,1.000000000000000000e+00
-9.611478309185358393e-01,1.449671738098720075e-01,2.314547445917954360e-01,7.909251913789247523e-02,1.413340894766580702e-01,-8.820143827862075847e-01,1.490000000000000036e+01,1.000000000000000000e+00
-9.676145183327701238e-01,1.519107247795066784e-01,2.182088003713654190e-01,7.164741501504667820e-02,1.447511963236550736e-01,-8.662110186676671431e-01,1.490499999999999936e+01,1.000000000000000000e+00
-9.710859723179312564e-01,1.494185211734061769e-01,1.892115112943082433e-01,6.517968043646572840e-02,1.479167594019437093e-01,-8.587831103558444257e-01,1.491000000000000014e+01,1.000000000000000000e+00
-9.704286339019946306e-01,1.478860091121354803e-01,1.665874995231996503e-01,3.988983281466194214e-02,1.435992225734827044e-01,-8.443345878056529585e-01,1.491499999999999915e+01,1.000000000000000000e+00
-9.761841101708426116e-01,1.519754541529818870e-01,1.511542768414952664e-01,1.671385949603426332e-02,1.383275055242663976e-01,-8.402805401629114268e-01,1.491999999999999993e+01,1.000000000000000000e+00
-9.731824184557849033e-01,1.624915127982529128e-01,1.309145438869954992e-01,-1.950555454965841387e-02,1.400903229926781235e-01,-8.360860943794250488e-01,1.492500000000000071e+01,1.000000000000000000e+00
-9.722219733472996506e-01,1.594083725509052030e-01,1.126809856581535013e-01,-6.280952085344712610e-02,1.434983491036767589e-01,-8.312412162311565433e-01,1.492999999999999972e+01,1.000000000000000000e+00
-9.780971611201403348e-01,1.659382445568285402e-01,1.002522942374014236e-01,-9.201293110231707761e-02,1.432875692844390869e-01,-8.151703977981687999e-01,1.493500000000000050e+01,1.000000000000000000e+00
-9.753006006178037701e-01,1.776904804123596859e-01,9.868508517007085201e-02,-1.256456566589145285e-01,1.385142350443109294e-01,-8.058674658815841996e-01,1.493999999999999950e+01,1.000000000000000000e+00
-9.762979246325400595e-01,1.822879946039810406e-01,9.512416768441223081e-02,-1.695882813087275787e-01,1.208150371765104314e-01,-7.967124632502636805e-01,1.494500000000000028e+01,1.000000000000000000e+00
-9.814899966388046515e-01,1.817256317732818260e-01,9.319535176491534900e-02,-2.236236705401018210e-01,1.106948718586082125e-01,-7.956719025849575688e-01,1.494999999999999929e+01,1.000000000000000000e+00
-9.869421720580289215e-01,1.819525607573821979e-01,9.142312211486411377e-02,-3.204103719064941291e-01,9.405528666797201287e-02,-7.967615418944691275e-01,1.495500000000000007e+01,1.000000000000000000e+00
-9.953341152877486220e-01,1.776218781916715506e-01,8.752700782041070160e-02,-3.707543453955272073e-01,8.139087149362629614e-02,-8.048633434501699657e-01,1.496000000000000085e+01,1.000000000000000000e+00
-1.000757795867738054e+00,1.706932689686807558e-01,7.981495672481032921e-02,-4.518658249642584779e-01,7.008427053585941646e-02,-8.076126446361600042e-01,1.496499999999999986e+01,1.000000000000000000e+00
-1.000238766521426292e+00,1.651802890216511888e-01,7.367418857609631111e-02,-5.177762351658650175e-01,6.302723226543051338e-02,-8.056365928060273962e-01,1.497000000000000064e+01,1.000000000000000000e+00
-9.983003837849466766e-01,1.482584054296660625e-01,7.452071106074524554e-02,-5.723347005776185936e-01,4.968483119534229664e-02,-8.013847167693389784e-01,1.497499999999999964e+01,1.000000000000000000e+00
-9.918490061292553062e-01,1.235389843374037067e-01,8.122783613692717564e-02,-5.985032543125516913e-01,3.340444109170237486e-02,-7.950673066826454694e-01,1.498000000000000043e+01,1.000000000000000000e+00
-9.903703408402924069e-01,1.003962566383934107e-01,8.304232600642581785e-02,-6.405182481848568088e-01,2.251457766292296048e-02,-7.854732501842713877e-01,1.498499999999999943e+01,1.000000000000000000e+00
-9.833573288143033775e-01,8.349874358294408216e-02,8.246434047852307936e-02,-6.825217689574862856e-01,6.109004526465393325e-03,-7.832622598425854621e-01,1.499000000000000021e+01,1.000000000000000000e+00
-9.758015918237478159e-01,6.731145522193279773e-02,8.590692472181718498e-02,-6.913361454124069549e-01,-6.951514798888454305e-03,-7.782247176925424226e-01,1.499499999999999922e+01,1.000000000000000000e+00
-9.526830950604671111e-01,6.286667900536049847e-02,1.079152866333865646e-01,-7.156456030498851151e-01,-1.974600800871849013e-02,-7.927136917981234543e-01,1.500000000000000000e+01,1.000000000000000000e+00
-9.489525320769336414e-01,4.652496732972488669e-02,1.218507106241925597e-01,-7.232187455540146637e-01,-3.099291599178671114e-02,-8.158212876442951789e-01,1.500500000000000078e+01,1.000000000000000000e+00
-9.434952619754444214e-01,3.528948706220955134e-02,1.356553249511456838e-01,-7.620189024115210374e-01,-3.984639237994767880e-02,-8.088740901242779113e-01,1.500999999999999979e+01,1.000000000000000000e+00
-9.413593867607636945e-01,3.546659090157828348e-02,1.498885332104294976e-01,-7.858991885776920316e-01,-3.996660560369491577e-02,-8.128265233301916748e-01,1.501500000000000057e+01,1.000000000000000000e+00
-9.420188229556911708e-01,3.473273851273276508e-02,1.611674191787879906e-01,-7.844929652827030697e-01,-3.611923630671934338e-02,-8.257253468534746510e-01,1.501999999999999957e+01,1.000000000000000000e+00
-9.262275680278565515e-01,6.505217180869081461e-02,1.915204726422347625e-01,-7.500180007085520684e-01,-2.321435829360342720e-02,-8.513181098939193170e-01,1.502500000000000036e+01,1.000000000000000000e+00
-9.812653477421028336e-01,4.572670971311402349e-02,1.702656417545860001e-01,-6.924064804882095192e-01,-1.009751384233967958e-02,-9.446008618604014861e-01,1.502999999999999936e+01,1.000000000000000000e+00
-9.613598679360471078e-01,3.158932661106750306e-02,1.945411299389167570e-01,-7.696305282744373422e-01,-1.994601390685418404e-02,-7.949626197052822585e-01,1.503500000000000014e+01,1.000000000000000000e+00
-9.643952389283785287e-01,5.431228726815893332e-02,1.959814520960615203e-01,-7.773274994574528307e-01,-8.724126258921192228e-03,-7.477669777461852796e-01,1.503999999999999915e+01,1.000000000000000000e+00
-9.632867787247244573e-01,6.331397405783649457e-02,2.155257670447982554e-01,-7.714593621210301677e-01,1.636571571786923224e-02,-7.268905418857274370e-01,1.504499999999999993e+01,1.000000000000000000e+00
-9.669196032416403908e-01,7.085950259513257299e-02,2.264163263460767517e-01,-7.377221189484142183e-01,5.400227706725192756e-02,-7.240221072160926141e-01,1.505000000000000071e+01,1.000000000000000000e+00
-9.747710827193694083e-01,7.849362669168945261e-02,2.295617337229522992e-01,-7.094183469699333333e-01,8.081363544368461160e-02,-7.185337332327131898e-01,1.505499999999999972e+01,1.000000000000000000e+00
-9.781034108034389885e-01,7.595386452736421767e-02,2.337671374879422281e-01,-6.615505168996317353e-01,1.147336525421832065e-01,-6.894827485084533691e-01,1.506000000000000050e+01,1.000000000000000000e+00
-9.883687456165772822e-01,7.958789164935985150e-02,2.412954383157386307e-01,-6.206670023263964886e-01,1.419650206581462848e-01,-6.822534166224762942e-01,1.506499999999999950e+01,1.000000000000000000e+00
-9.985876189721467622e-01,9.413500224206186595e-02,2.447224639881106500e-01,-5.936064797138538296e-01,1.687867819232206357e-01,-6.596470430032480570e-01,1.507000000000000028e+01,1.000000000000000000e+00
-1.006239841891767517e+00,1.080627924674257140e-01,2.382912783005216029e-01,-5.760728292680931117e-01,1.925500305094786369e-01,-6.347195422650162566e-01,1.507499999999999929e+01,1.000000000000000000e+00
-1.009969350213847816e+00,1.113388284773187686e-01,2.401314862873587253e-01,-5.637954311792801043e-01,2.056658365898980656e-01,-5.963106136206215435e-01,1.508000000000000007e+01,1.000000000000000000e+00
-1.006874682678026378e+00,1.123546955312894058e-01,2.343813969116391172e-01,-5.543890086887858226e-01,2.097062032431187828e-01,-5.483085201322559499e-01,1.508500000000000085e+01,1.000000000000000000e+00
-1.000566586964492855e+00,1.141568556042476534e-01,2.241225632642844245e-01,-5.452798726462027012e-01,1.981950212280681467e-01,-5.054457255338450361e-01,1.508999999999999986e+01,1.000000000000000000e+00
-9.930342639528140225e-01,1.158901345035598524e-01,2.184076974863591314e-01,-5.283179255241755579e-01,1.924150670245540207e-01,-4.723576929334390440e-01,1.509500000000000064e+01,1.000000000000000000e+00
-9.838804301535770680e-01,1.126835374230485132e-01,2.079226885914914336e-01,-4.965542530284605682e-01,1.832680567658165893e-01,-4.253490063213054007e-01,1.509999999999999964e+01,1.000000000000000000e+00
-9.818302934203571031e-01,1.034060349970792464e-01,1.911649950544228038e-01,-4.866582482445580560e-01,1.741132613707218613e-01,-3.909881235608168026e-01,1.510500000000000043e+01,1.000000000000000000e+00
-9.837141005445181330e-01,8.226650807600693893e-02,1.689778507934656115e-01,-4.947832472712882512e-01,1.592342169660743711e-01,-3.626009780797169735e-01,1.510999999999999943e+01,1.000000000000000000e+00
-9.881371759696067070e-01,6.555450894271465379e-02,1.354359593861879096e-01,-5.177796140266064384e-01,1.566421924883193151e-01,-3.378118347210936623e-01,1.511500000000000021e+01,1.000000000000000000e+00
-9.894410022695878659e-01,5.516255186368800023e-02,1.165220551758135437e-01,-5.259971191602607066e-01,1.425258032013413390e-01,-3.255571793808683667e-01,1.511999999999999922e+01,1.000000000000000000e+00
-9.896110199124270590e-01,4.186508201597335249e-02,1.056219011090942933e-01,-5.178112063742613680e-01,1.239459390566678976e-01,-3.112281804155433429e-01,1.512500000000000000e+01,1.000000000000000000e+00
-9.792068355313184869e-01,3.408531332111658374e-02,1.006637519192130209e-01,-5.120429227066966016e-01,1.109523061539595123e-01,-3.138804437942055992e-01,1.513000000000000078e+01,1.000000000000000000e+00
-9.657853029032051895e-01,2.498906118860321282e-02,9.949000307930939979e-02,-5.344928984230127300e-01,9.590900668197265000e-02,-3.178200856554054266e-01,1.513499999999999979e+01,1.000000000000000000e+00
-9.476124434976844757e-01,8.950341161858919176e-03,1.050025720596387824e-01,-5.584041294790103027e-01,9.897807851241939570e-02,-3.192170317561085491e-01,1.514000000000000057e+01,1.000000000000000000e+00
-9.356965700993873369e-01,-7.192537477440205142e-03,1.158023464257480484e-01,-5.878944828909056231e-01,1.057190107477138930e-01,-3.357992651316605848e-01,1.514499999999999957e+01,1.000000000000000000e+00
-9.273183695753280942e-01,-3.189558760659423620e-02,1.327833486298703458e-01,-6.243460548634446328e-01,1.252601676133223152e-01,-3.651735633397881209e-01,1.515000000000000036e+01,1.000000000000000000e+00
-9.223431398865379327e-01,-8.096254675350891827e-02,1.550823338111350091e-01,-6.506952004791732858e-01,1.455714098953458935e-01,-4.138115758976153580e-01,1.515499999999999936e+01,1.000000000000000000e+00
-9.160859850883706912e-01,-1.257162035979395021e-01,1.763721621490927371e-01,-6.366846896210952567e-01,1.568450422872432470e-01,-4.602010870115419428e-01,1.516000000000000014e+01,1.000000000000000000e+00
-9.133041123056189203e-01,-1.722574564654799356e-01,2.003925356923610956e-01,-6.182884593801865059e-01,1.659300306844826434e-01,-5.188567324584336671e-01,1.516499999999999915e+01,1.000000000000000000e+00
-9.253486643402877299e-01,-2.085813415607358223e-01,2.199769041267835290e-01,-5.972569311758698651e-01,1.658045901013516510e-01,-5.722328481902092534e-01,1.516999999999999993e+01,1.000000000000000000e+00
-9.340031340969447982e-01,-2.340076694808160274e-01,2.446570033396036348e-01,-5.824359467080610919e-01,1.671854108289775320e-01,-6.388380259420352036e-01,1.517500000000000071e+01,1.000000000000000000e+00
-9.451263445620632364e-01,-2.497052317827838652e-01,2.562814762854898065e-01,-5.940713959485165452e-01,1.535517148939706256e-01,-6.756014536022632022e-01,1.517999999999999972e+01,1.000000000000000000e+00
-9.547351793534866182e-01,-2.545859219038431043e-01,2.676663262264040721e-01,-6.007993745803837937e-01,1.488195983279145818e-01,-7.048547125557903525e-01,1.518500000000000050e+01,1.000000000000000000e+00
-9.602887774313039193e-01,-2.624840119185244958e-01,2.716649738727260899e-01,-6.064399224104566333e-01,1.446517472072918475e-01,-7.201068553471829947e-01,1.518999999999999950e+01,1.000000000000000000e+00
-9.664741110566487103e-01,-2.544179162012621398e-01,2.664265079072765663e-01,-6.040058924521021222e-01,1.417688219122820725e-01,-7.319784770507975491e-01,1.519500000000000028e+01,1.000000000000000000e+00
-9.686448534388514275e-01,-2.507053809552752810e-01,2.551509116939787436e-01,-5.769423014386660942e-01,1.386767793001126570e-01,-7.165182828469731646e-01,1.519999999999999929e+01,1.000000000000000000e+00
-9.691796623830616353e-01,-2.372211430695398415e-01,2.432618843092056449e-01,-5.095559606060852120e-01,1.379671844595780072e-01,-7.043013152478903027e-01,1.520500000000000007e+01,1.000000000000000000e+00
-9.699289428768177457e-01,-2.203706417777391291e-01,2.374567819887035691e-01,-4.288460982776563513e-01,1.414004829378505967e-01,-6.927005679549371742e-01,1.521000000000000085e+01,1.000000000000000000e+00
-9.747893107299938631e-01,-2.012265421475599170e-01,2.341875844331925416e-01,-3.423898036188881000e-01,1.506322255136248456e-01,-6.720409610129250977e-01,1.521499999999999986e+01,1.000000000000000000e+00
-9.902712265999540353e-01,-1.765125878578905905e-01,2.275384287536880712e-01,-2.478898655253282401e-01,1.662045024773777246e-01,-6.491075453603161183e-01,1.522000000000000064e+01,1.000000000000000000e+00
-1.013080444313942063e+00,-1.504550894133200589e-01,2.149732366413104334e-01,-1.649520945714019748e-01,1.897792350649502580e-01,-6.274538948156550555e-01,1.522499999999999964e+01,1.000000000000000000e+00
-1.026156394979031550e+00,-1.301604238467433117e-01,2.072259953359794349e-01,-1.113012029118476270e-01,2.041122545615216555e-01,-6.103326300963380913e-01,1.523000000000000043e+01,1.000000000000000000e+00
-1.044874540757751546e+00,-1.080933352170647122e-01,1.870003133767772219e-01,-7.424159686968122285e-02,2.325238420306777465e-01,-5.805329748234230314e-01,1.523499999999999943e+01,1.000000000000000000e+00
-1.055330874867321578e+00,-9.617111562482216769e-02,1.741286998828343036e-01,-6.723712375765084071e-02,2.569807283382297136e-01,-5.531035792796250572e-01,1.524000000000000021e+01,1.000000000000000000e+00
-1.060226011164527415e+00,-8.849484802647658577e-02,1.698343115478495591e-01,-6.413346237332884225e-02,2.817670052720066542e-01,-5.184937876508396437e-01,1.524499999999999922e+01,1.000000000000000000e+00
-1.054720835335757778e+00,-8.920182432329983035e-02,1.745796085935120145e-01,-6.738854405051523944e-02,2.951453112134146406e-01,-4.912600014187873954e-01,1.525000000000000000e+01,1.000000000000000000e+00
-1.051176004681561471e+00,-1.054473303404607765e-01,1.834719246607675325e-01,-4.708407648549469554e-02,2.981729593037767967e-01,-4.636116701131469675e-01,1.525500000000000078e+01,1.000000000000000000e+00
-1.046347103258975730e+00,-1.187737600586828285e-01,1.980221476515663936e-01,-1.259646526010954268e-02,2.942047419256080820e-01,-4.540200587252335440e-01,1.525999999999999979e+01,1.000000000000000000e+00
-1.043530517184380946e+00,-1.367136478933632660e-01,2.110501663342743139e-01,1.607878837630099395e-02,2.840956096107561391e-01,-4.563723249266613546e-01,1.526500000000000057e+01,1.000000000000000000e+00
-1.045070286401568183e+00,-1.473491234881333656e-01,2.165609644077427509e-01,3.070950189051773957e-02,2.649220582778660238e-01,-4.564117182300191922e-01,1.526999999999999957e+01,1.000000000000000000e+00
-1.058227749149466268e+00,-1.526337018188450578e-01,2.252621584536832755e-01,2.382302469488293932e-03,2.496454163902366297e-01,-4.546136015290863641e-01,1.527500000000000036e+01,1.000000000000000000e+00
-1.070078940039419946e+00,-1.644023471579871831e-01,2.232038507252354642e-01,-3.803025480450812623e-02,2.316722508935112890e-01,-4.446806207179433978e-01,1.527999999999999936e+01,1.000000000000000000e+00
-1.089918747757206985e+00,-1.740045861508348890e-01,2.187911733761822852e-01,-8.396418447304682120e-02,2.217099985436694620e-01,-4.384938654147378934e-01,1.528500000000000014e+01,1.000000000000000000e+00
-1.104937344867139348e+00,-1.866854648417779483e-01,2.146580374065695240e-01,-1.416842644602566703e-01,2.097197536182582311e-01,-4.333007523041109144e-01,1.528999999999999915e+01,1.000000000000000000e+00
-1.126400233564489151e+00,-1.995117573948388401e-01,2.026365943027191863e-01,-1.995625595415990716e-01,2.043722867965698242e-01,-4.237377005577145361e-01,1.529499999999999993e+01,1.000000000000000000e+00
-1.145327172571394048e+00,-2.020783660791306280e-01,1.952726024825742202e-01,-2.208052974970280968e-01,2.039134385316497267e-01,-4.066518592357438733e-01,1.530000000000000071e+01,1.000000000000000000e+00
-1.164399846523002324e+00,-1.905179972466788385e-01,1.831247656426878978e-01,-2.224158960094503312e-01,2.038851314821660266e-01,-3.923559885205908926e-01,1.530499999999999972e+01,1.000000000000000000e+00
-1.186867700100063594e+00,-1.687078508699803581e-01,1.694867196507983675e-01,-2.272132160793687017e-01,2.043722867965698242e-01,-3.712126592545539339e-01,1.531000000000000050e+01,1.000000000000000000e+00
-1.206278458881576476e+00,-1.489594217358184425e-01,1.605599861449041599e-01,-2.378137271557923260e-01,2.046980414441783025e-01,-3.527023420602251047e-01,1.531499999999999950e+01,1.000000000000000000e+00
-1.233014498284361826e+00,-1.178153965531541225e-01,1.490184601269029796e-01,-2.578282292597645631e-01,2.110177965755588025e-01,-3.342648763650403199e-01,1.532000000000000028e+01,1.000000000000000000e+00
-1.278383562329542311e+00,-8.024326449926227900e-02,1.454106917766865847e-01,-2.828748367066652447e-01,2.146970058632641232e-01,-3.041256770106456897e-01,1.532499999999999929e+01,1.000000000000000000e+00
-1.321351452710287422e+00,-5.488814311608772312e-02,1.463606220027306171e-01,-3.213802049724490684e-01,2.174446877634476638e-01,-2.936537265777587891e-01,1.533000000000000007e+01,1.000000000000000000e+00
-1.371572923690167700e+00,-3.114009890796137769e-02,1.586330432043748517e-01,-3.651604516636214881e-01,2.224237265193550750e-01,-2.786621129613519043e-01,1.533500000000000085e+01,1.000000000000000000e+00
-1.424751517844732085e+00,-1.378682157281281399e-02,1.765340881277153717e-01,-4.008282517535942668e-01,2.269795750796422262e-01,-2.514874487605646136e-01,1.533999999999999986e+01,1.000000000000000000e+00
-1.469054080108119997e+00,-3.750014762305244401e-05,1.867046599857487554e-01,-4.526600586643366730e-01,2.340127039443199997e-01,-2.117369031090273745e-01,1.534500000000000064e+01,1.000000000000000000e+00
-1.500291106112448203e+00,5.669565592843990587e-03,1.915602421365011632e-01,-4.952266173609773392e-01,2.413543601318988152e-01,-1.555488216592542938e-01,1.534999999999999964e+01,1.000000000000000000e+00
-1.519053558099669576e+00,9.769500066011272809e-04,1.836714678596537698e-01,-5.258803294232321512e-01,2.413247807615941654e-01,-8.516617759363966089e-02,1.535500000000000043e+01,1.000000000000000000e+00
-1.532142632822468098e+00,-1.086543550375965519e-02,1.684602933212268061e-01,-5.488447321306072491e-01,2.415616869343910067e-01,1.027636296018941998e-02,1.535999999999999943e+01,1.000000000000000000e+00
-1.536754987702816599e+00,-2.182004303219732891e-02,1.494226180078900845e-01,-5.495902299880981445e-01,2.364947204299838734e-01,1.016214937457234069e-01,1.536500000000000021e+01,1.000000000000000000e+00
-1.541087577490216409e+00,-3.267970162815784368e-02,1.213573748379315198e-01,-5.299310301693758163e-01,2.256024045869536865e-01,2.232971130537941273e-01,1.536999999999999922e+01,1.000000000000000000e+00
-1.544264050731954052e+00,-3.330075446991459520e-02,9.891773982127363696e-02,-4.894917471066321246e-01,2.199253754055868204e-01,3.120725194341509856e-01,1.537500000000000000e+01,1.000000000000000000e+00
-1.550603336935759247e+00,-2.603420637412982158e-02,7.437889538023180480e-02,-4.150345180647657672e-01,2.156588504946151674e-01,3.979251799340211004e-01,1.538000000000000078e+01,1.000000000000000000e+00
-1.557617327857317768e+00,-9.760807213594908938e-03,5.181078406593280644e-02,-3.351457518226709231e-01,2.086155936986506254e-01,4.862440961416363283e-01,1.538499999999999979e+01,1.000000000000000000e+00
-1.568701114146675124e+00,1.239944517111237973e-02,3.253846447880803794e-02,-2.560517698769136929e-01,2.047399924490774792e-01,5.591836683617242842e-01,1.539000000000000057e+01,1.000000000000000000e+00
-1.589257098238541221e+00,3.379714242400604085e-02,1.514568646712448168e-02,-1.514852804731264546e-01,1.976697203420047233e-01,6.433708464571831209e-01,1.539499999999999957e+01,1.000000000000000000e+00
-1.616807380219375201e+00,6.639059266527619352e-02,-4.706962266429893203e-03,-7.069300323475961878e-02,1.929695864567547992e-01,7.154586197524153146e-01,1.540000000000000036e+01,1.000000000000000000e+00
-1.633184745072267186e+00,9.301785000543874582e-02,-2.050362105796817852e-02,-1.156936921915643554e-03,1.892008445296954333e-01,7.948605159999478920e-01,1.540499999999999936e+01,1.000000000000000000e+00
-1.649097921299725211e+00,1.323522064324592629e-01,-4.549805751142754762e-02,6.718034328247500520e-02,1.826824061838606961e-01,8.874279149423748292e-01,1.541000000000000014e+01,1.000000000000000000e+00
-1.659630328060190507e+00,1.661499237172825993e-01,-6.920598102425865039e-02,9.916560688310405158e-02,1.745942615206911019e-01,9.845694562834385044e-01,1.541499999999999915e+01,1.000000000000000000e+00
-1.661091790431568516e+00,2.132440362449610771e-01,-9.873459586628907658e-02,1.128444066684217428e-01,1.676683074903607129e-01,1.094212895731591306e+00,1.541999999999999993e+01,1.000000000000000000e+00
-1.668172296685309863e+00,2.786158996645574648e-01,-1.319199792701843399e-01,1.030506851922158712e-01,1.565808145755965830e-01,1.229228629688168706e+00,1.542500000000000071e+01,1.000000000000000000e+00
-1.658591105655880416e+00,3.505213698599876082e-01,-1.680028559707467117e-01,6.346379393946660619e-02,1.398391747938094731e-01,1.370334030361014754e+00,1.542999999999999972e+01,2.000000000000000000e+00
-1.652393800100225185e+00,4.372896421536204836e-01,-1.758492959144514478e-01,3.790138789029495140e-03,1.468439577199486257e-01,1.584081151465165371e+00,1.543500000000000050e+01,2.000000000000000000e+00
-1.613927629363066218e+00,5.185315068547817763e-01,-1.855636242441520978e-01,-3.008559414570459445e-02,1.272070727529371892e-01,1.864021876003644218e+00,1.543999999999999950e+01,2.000000000000000000e+00
-1.559297203011831723e+00,5.882995980790225454e-01,-1.788835677745200248e-01,-3.525685146450996399e-02,1.120690323387919518e-01,2.123494117902772871e+00,1.544500000000000028e+01,2.000000000000000000e+00
-1.536873748477632695e+00,6.347946171443799024e-01,-1.628151553410319696e-01,-1.141065409227365671e-02,9.004807930134900440e-02,2.395923472977838475e+00,1.544999999999999929e+01,2.000000000000000000e+00
-1.481791312595802212e+00,6.936026957856097352e-01,-1.050595664724338490e-01,1.208888443253456624e-01,9.028001240075358980e-02,2.696365416969673134e+00,1.545500000000000007e+01,2.000000000000000000e+00
-1.424615559001420895e+00,7.633069238241940724e-01,-5.957995623382533745e-03,3.599308088843387043e-01,1.007745700927926008e-01,2.973066868192298262e+00,1.546000000000000085e+01,2.000000000000000000e+00
-1.400544106190731330e+00,7.957717209174346440e-01,7.588283772171441899e-02,7.181051173309396241e-01,1.297365277520645122e-01,3.224383865077334654e+00,1.546499999999999986e+01,2.000000000000000000e+00
-1.374322101589670053e+00,8.016405706076691340e-01,1.568397868560774677e-01,1.207823158137380393e+00,2.212076074028324069e-01,3.446621936579004508e+00,1.547000000000000064e+01,2.000000000000000000e+00
-1.387418435597714161e+00,7.401413664046480045e-01,1.801177764459090114e-01,1.427526042598409317e+00,3.057682402577867609e-01,3.603360586869021720e+00,1.547499999999999964e+01,2.000000000000000000e+00
-1.362338105623934315e+00,5.334890402625730443e-01,1.381772666361135160e-01,1.562722405420313265e+00,5.092733769550938927e-01,3.718882213235150225e+00,1.548000000000000043e+01,2.000000000000000000e+00
-1.347112494405120264e+00,3.298137531520047849e-01,8.677931370904860831e-02,1.462698518164470940e+00,6.938616570961321228e-01,3.694516762755222672e+00,1.548499999999999943e+01,2.000000000000000000e+00
-1.339525173480065945e+00,7.137712916394353679e-02,3.509809912680370014e-02,1.071942914146146064e+00,9.118056256760979084e-01,3.593704729156021571e+00,1.549000000000000021e+01,2.000000000000000000e+00
-1.327665384490188449e+00,-9.385881871200249527e-02,2.872176303649343759e-02,6.291801462070175655e-01,1.041226981052414624e+00,3.507382014380666213e+00,1.549499999999999922e+01,2.000000000000000000e+00
-1.343316014055792040e+00,-1.824713613296150838e-01,3.478644879719273303e-02,4.840060532781170766e-02,1.128079960461418896e+00,3.439269286813911641e+00,1.550000000000000000e+01,2.000000000000000000e+00
-1.362237658330247125e+00,-1.867466147280031075e-01,4.736947653339576569e-02,-6.031206216913678197e-01,1.172957703816264852e+00,3.327291500236277955e+00,1.550500000000000078e+01,2.000000000000000000e+00
-1.369686749691621852e+00,-9.882163610152844280e-02,6.073705022855383634e-02,-1.084868386507789939e+00,1.161242262895154642e+00,3.196034192149110442e+00,1.550999999999999979e+01,2.000000000000000000e+00
-1.350877696293133923e+00,-3.245539110302099461e-02,2.878040409173686365e-02,-1.425925869396544643e+00,1.077572390659280899e+00,3.033129310506601950e+00,1.551500000000000057e+01,2.000000000000000000e+00
-1.325348976190969585e+00,4.166914074612629304e-04,-1.107192928861880712e-02,-1.453960174216499812e+00,9.400001484460492884e-01,2.859347529514576713e+00,1.551999999999999957e+01,2.000000000000000000e+00
-1.341370910418671958e+00,1.067892015820629398e-01,-3.025398914037568179e-02,-1.295362412372550676e+00,7.459274824208560473e-01,2.722232167711039263e+00,1.552500000000000036e+01,2.000000000000000000e+00
-1.316425139256488741e+00,1.495265085480058653e-01,-5.447650294069196486e-02,-1.062844918670473593e+00,5.352644496835213817e-01,2.671820811306884647e+00,1.552999999999999936e+01,2.000000000000000000e+00
-1.284771079310967234e+00,6.982086893730858612e-02,-4.288802514877166489e-02,-7.454104754737201910e-01,3.208733240770856310e-01,2.647841316491123642e+00,1.553500000000000014e+01,2.000000000000000000e+00
-1.246545318377724865e+00,-8.633104942287828099e-02,1.177928833123480581e-02,-1.867249712148288388e-01,3.292665790228244127e-02,2.659549728225360177e+00,1.553999999999999915e+01,2.000000000000000000e+00
-1.207513075009626569e+00,-2.285033767138053284e-01,7.674496390555804459e-02,1.328877269855904264e-01,-1.555660869158334292e-01,2.681904385802209134e+00,1.554499999999999993e+01,2.000000000000000000e+00
-1.201536015132345314e+00,-3.091344650149162043e-01,1.402051855785393653e-01,2.961593663088173400e-01,-2.984462652471491784e-01,2.729320360958392477e+00,1.555000000000000071e+01,2.000000000000000000e+00
-1.154840161688873046e+00,-3.814165294057517697e-01,1.996454916095586340e-01,2.720507521641905013e-01,-4.175934854516190065e-01,2.830365666393913404e+00,1.555499999999999972e+01,2.000000000000000000e+00
-1.134295907819048210e+00,-3.707549816569964962e-01,2.650547742974302956e-01,1.227715274968249892e-01,-4.798338458654837213e-01,2.943826978764492175e+00,1.556000000000000050e+01,2.000000000000000000e+00
-1.076030548155842315e+00,-3.369956052585232342e-01,3.341202319993336056e-01,-6.271489375413823175e-02,-5.216384031282956801e-01,3.050228494044068484e+00,1.556499999999999950e+01,2.000000000000000000e+00
-1.011433526727446131e+00,-2.930220988491324396e-01,4.132583377311763728e-01,-2.582470655923246317e-01,-5.501054835495843287e-01,3.104679357958960217e+00,1.557000000000000028e+01,2.000000000000000000e+00
-9.669359866874941423e-01,-2.138225675689465199e-01,5.076356647726444349e-01,-4.759457740141539439e-01,-5.529314403338037032e-01,3.057969304526123810e+00,1.557499999999999929e+01,2.000000000000000000e+00
-8.969837442708703534e-01,-9.010373348802952487e-02,5.722067883143401312e-01,-6.923302461086959791e-01,-5.504380208657898566e-01,2.943995997675464160e+00,1.558000000000000007e+01,2.000000000000000000e+00
-8.744182175510158972e-01,-1.374638119438520087e-02,6.087519681904782765e-01,-7.125314583083484088e-01,-5.412990168391054180e-01,2.869641696553006049e+00,1.558500000000000085e+01,2.000000000000000000e+00
-8.691186480695991534e-01,8.384057608331993428e-02,5.900361994621097228e-01,-5.923093349155374998e-01,-5.371962785720825195e-01,2.747844727072444648e+00,1.558999999999999986e+01,2.000000000000000000e+00
-8.746074529667249298e-01,1.193963729604108903e-01,5.256218791227926790e-01,-3.489562606428464053e-01,-5.387114517578753814e-01,2.689137187592034017e+00,1.559500000000000064e+01,2.000000000000000000e+00
-8.883719940491657807e-01,1.578877318825007148e-01,4.392910407069747780e-01,-2.272620278801797816e-02,-5.541095538388367547e-01,2.672239579785339991e+00,1.559999999999999964e+01,2.000000000000000000e+00
-9.093432139981834084e-01,1.826425773828376509e-01,3.473999289218524522e-01,4.383658297234978019e-01,-5.764647731819239063e-01,2.690954140771918190e+00,1.560500000000000043e+01,2.000000000000000000e+00
-9.200791095931941665e-01,1.986596411345574187e-01,2.691381472035002664e-01,8.673941277496487468e-01,-5.990400497211504360e-01,2.712993576187088696e+00,1.560999999999999943e+01,2.000000000000000000e+00
-8.377120114570145715e-01,1.582214427303555992e-01,2.014597416175957778e-01,1.194367594920181075e+00,-6.012413396077044281e-01,2.678227567842485612e+00,1.561500000000000021e+01,2.000000000000000000e+00
-9.065663889135537890e-01,2.577072448201218613e-01,1.818313109563424734e-01,1.471448270879229137e+00,-5.961973893094091315e-01,2.682824418536608135e+00,1.561999999999999922e+01,2.000000000000000000e+00
-8.640844925797956932e-01,2.244877557693587267e-01,1.725366487110840952e-01,1.630081588034429263e+00,-5.785153778749192455e-01,2.711823997256933350e+00,1.562500000000000000e+01,2.000000000000000000e+00
-8.034534096365808509e-01,1.887039573034147710e-01,1.450606465229625219e-01,1.684901227666459222e+00,-5.542877499553103826e-01,2.672074180421024181e+00,1.563000000000000078e+01,2.000000000000000000e+00
-7.771070916675644202e-01,1.589963122231702608e-01,1.136001387911400456e-01,1.649097499382897070e+00,-5.331029089313196190e-01,2.617946237358641959e+00,1.563499999999999979e+01,2.000000000000000000e+00
-7.425596783132981660e-01,8.871068481868553401e-02,8.171145267085558328e-02,1.508682079789425590e+00,-5.242357078844871454e-01,2.591909063908345967e+00,1.564000000000000057e+01,2.000000000000000000e+00
-7.179867185286092912e-01,4.132525284309085389e-02,5.218964461668477994e-02,1.331064352202175449e+00,-5.174417328482783240e-01,2.560454677598937412e+00,1.564499999999999957e+01,2.000000000000000000e+00
-6.921623774488394609e-01,4.186787485955648092e-03,3.452762064442221196e-02,1.177237383318945785e+00,-5.220108580930080677e-01,2.533704158542424700e+00,1.565000000000000036e+01,2.000000000000000000e+00
-6.876198642640742875e-01,9.569609302210060550e-03,-1.288656749652590701e-02,1.015548544199316172e+00,-5.249563308237887860e-01,2.527273377331294313e+00,1.565499999999999936e+01,2.000000000000000000e+00
-6.744673742226749980e-01,3.257212486650169769e-02,-4.707873283784281410e-02,8.482852024834659499e-01,-5.367073003977279599e-01,2.519054747547520012e+00,1.566000000000000014e+01,2.000000000000000000e+00
-6.478423642210915379e-01,5.180530002855499722e-02,-6.716818738648858145e-02,7.285605223014699483e-01,-5.398835760256905925e-01,2.511356830596923828e+00,1.566499999999999915e+01,2.000000000000000000e+00
-6.207401373480151419e-01,8.081640466287914881e-02,-9.065738500062320293e-02,6.432491982923033147e-01,-5.419302242423458260e-01,2.485704702259946330e+00,1.566999999999999993e+01,2.000000000000000000e+00
-6.150044137843050374e-01,1.042522958945884815e-01,-1.075476266501251138e-01,6.014511908019068986e-01,-5.351151935804863147e-01,2.446031361980358199e+00,1.567500000000000071e+01,2.000000000000000000e+00
-5.983799933236384483e-01,1.146340366305309000e-01,-1.224772751029120782e-01,5.087012021396682959e-01,-5.393003704095129525e-01,2.399536841093661277e+00,1.567999999999999972e+01,2.000000000000000000e+00
-5.814531340866782028e-01,1.224502478356691848e-01,-1.201055073865094219e-01,4.237478055130596277e-01,-5.431949564888157722e-01,2.327082053634621506e+00,1.568500000000000050e+01,2.000000000000000000e+00
-5.711666858040647110e-01,1.184987278571981162e-01,-1.130910269722416317e-01,3.617237690607466027e-01,-5.530613678949618528e-01,2.267550260081627744e+00,1.568999999999999950e+01,2.000000000000000000e+00
-5.555374571085724966e-01,1.145965991567283321e-01,-1.015999786792034232e-01,3.030795485331266303e-01,-5.450057609180224416e-01,2.163819837888258490e+00,1.569500000000000028e+01,2.000000000000000000e+00
-5.651838283254190243e-01,1.025861081247222417e-01,-9.241375210371428894e-02,2.733870093849589678e-01,-5.522217764089403236e-01,2.129972385288251946e+00,1.569999999999999929e+01,2.000000000000000000e+00
-5.520655489250092529e-01,8.309411734796577631e-02,-6.473966640658480876e-02,2.658559263062676425e-01,-5.567433834075927734e-01,2.069631424505656625e+00,1.570500000000000007e+01,2.000000000000000000e+00
-5.334072519301533699e-01,6.643894671673133967e-02,-4.188266004287825167e-02,2.687956365340539167e-01,-5.460210425113423138e-01,1.960560815439142068e+00,1.571000000000000085e+01,2.000000000000000000e+00
-5.237192113208603006e-01,7.022218808483340902e-02,-2.199787326488630151e-02,2.697089720085214526e-01,-5.274222350775007451e-01,1.873933864316109421e+00,1.571499999999999986e+01,2.000000000000000000e+00
-5.087186372876151275e-01,6.341893181636112931e-02,-1.875125583160039411e-03,2.720354493222887360e-01,-5.136969402844349109e-01,1.775323956698334094e+00,1.572000000000000064e+01,2.000000000000000000e+00
-5.031976231677706135e-01,5.672142972372665182e-02,1.395117928853229633e-02,2.691690445081112992e-01,-5.002094991924272982e-01,1.678024072473669470e+00,1.572499999999999964e+01,2.000000000000000000e+00
-4.743567067249171432e-01,5.711984111324462654e-02,2.176329146676049542e-02,2.486796766479127951e-01,-4.896548246920616743e-01,1.578270849573407686e+00,1.573000000000000043e+01,2.000000000000000000e+00
-4.512475523516809583e-01,5.850477180554982531e-02,8.613473837293326649e-03,2.062114917968113637e-01,-5.009811519324166573e-01,1.491515414576632947e+00,1.573499999999999943e+01,2.000000000000000000e+00
-4.413552250703268176e-01,6.948151882703892945e-02,9.990756079873243378e-03,1.372268197034416659e-01,-5.032549766213213482e-01,1.402924473240084513e+00,1.574000000000000021e+01,2.000000000000000000e+00
-4.339002099437484494e-01,9.069207461903285028e-02,1.763285780717176177e-02,4.290527183170941838e-02,-5.017670989036560059e-01,1.304269173765920664e+00,1.574499999999999922e+01,2.000000000000000000e+00
-4.363629310650087301e-01,1.049833366017031838e-01,2.738665446567398881e-02,-7.218814098987204331e-02,-5.049857378927609108e-01,1.214325653415969430e+00,1.575000000000000000e+01,2.000000000000000000e+00
-4.430692833277762310e-01,1.330487073744536231e-01,3.461683976328526480e-02,-1.759609155048080242e-01,-5.164892395556903715e-01,1.130062500018989224e+00,1.575500000000000078e+01,2.000000000000000000e+00
-4.537666677162979223e-01,1.660322244011188941e-01,3.377561441291077049e-02,-2.711390626902704937e-01,-5.293986022015824133e-01,1.026913591198452380e+00,1.575999999999999979e+01,2.000000000000000000e+00
-4.540807852526326238e-01,1.928129637961875642e-01,3.691039889386031614e-02,-3.305969031068606290e-01,-5.402226190222589874e-01,9.496157615694088561e-01,1.576500000000000057e+01,2.000000000000000000e+00
-4.464739355442656765e-01,2.110349754246899079e-01,4.391121052041679906e-02,-3.627352175024396441e-01,-5.400857470047515374e-01,8.700990156320669300e-01,1.576999999999999957e+01,2.000000000000000000e+00
-4.366407355610062435e-01,2.301677538879521034e-01,6.228029832753608636e-02,-3.654354801412584286e-01,-5.526071323187038420e-01,7.916156986340828761e-01,1.577500000000000036e+01,2.000000000000000000e+00
-4.306025029288830241e-01,2.306190391849622101e-01,9.195930614857845964e-02,-3.480170380618601289e-01,-5.666646169093987329e-01,7.316645832283874551e-01,1.577999999999999936e+01,2.000000000000000000e+00
-4.425312338624323161e-01,2.457261390925138955e-01,1.281304324947536710e-01,-2.718581321727477906e-01,-5.994384806490534734e-01,6.881706829603546627e-01,1.578500000000000014e+01,2.000000000000000000e+00
-4.396736674925004751e-01,2.543290468595172937e-01,1.533053955247432043e-01,-2.017323805277086157e-01,-6.328368943439141026e-01,6.684934116726837239e-01,1.578999999999999915e+01,2.000000000000000000e+00
-4.149911042871649580e-01,2.441675059393869085e-01,1.783685647053065981e-01,-1.481415279361068260e-01,-6.424910704407228446e-01,6.010925789758908566e-01,1.579499999999999993e+01,2.000000000000000000e+00
-4.316642564807866012e-01,2.627763678495153021e-01,2.343549384079710030e-01,-5.254466641001179911e-02,-6.550669692526314147e-01,4.917174678193133586e-01,1.580000000000000071e+01,2.000000000000000000e+00
-4.596549167533838798e-01,2.751456591072883318e-01,2.598011753137218771e-01,5.411040798422422915e-02,-6.581440567970275879e-01,4.271250808515981712e-01,1.580499999999999972e+01,2.000000000000000000e+00
-4.706622278744065913e-01,2.857204122903958532e-01,2.706688097016718975e-01,1.914626146222089820e-01,-6.549685179725169837e-01,3.698189226042656874e-01,1.581000000000000050e+01,2.000000000000000000e+00
-4.684692849132245929e-01,2.996372313938483467e-01,2.751929960712960477e-01,4.331659763145652153e-01,-6.377175371230627832e-01,2.568470562153237213e-01,1.581499999999999950e+01,2.000000000000000000e+00
-4.678446966252952088e-01,3.221403944680581999e-01,2.554086644396507122e-01,6.703903828883137628e-01,-6.039173892206147753e-01,1.327867584335270523e-01,1.582000000000000028e+01,2.000000000000000000e+00
-4.833424963145124265e-01,3.575322140937656767e-01,2.143018525995447621e-01,9.099267241193582656e-01,-5.666730763419385308e-01,1.562303234333667530e-02,1.582499999999999929e+01,2.000000000000000000e+00
-4.953349473655709878e-01,3.972796141785228108e-01,1.710993790245273760e-01,1.106430509483129265e+00,-5.288316623084351464e-01,-5.414967840848867314e-02,1.583000000000000007e+01,2.000000000000000000e+00
-5.098287673517279961e-01,4.398616881562646408e-01,1.211311436965095134e-01,1.246245625902366871e+00,-4.925927639279265025e-01,-1.075644626007574711e-01,1.583500000000000085e+01,2.000000000000000000e+00
-5.130463159570686216e-01,4.962346353655180953e-01,6.913016193947764398e-02,1.331787697688485261e+00,-4.508561828426445595e-01,-1.638381275906515278e-01,1.583999999999999986e+01,2.000000000000000000e+00
-5.234186360698966922e-01,5.373108941296534935e-01,4.041717599928192073e-02,1.339298910822756872e+00,-4.252365721267330478e-01,-2.007614888642280104e-01,1.584500000000000064e+01,2.000000000000000000e+00
-5.328268355968815984e-01,5.650096303898540784e-01,1.869437927346818962e-02,1.269079895791230150e+00,-3.894856181572928788e-01,-2.246407752084464415e-01,1.584999999999999964e+01,2.000000000000000000e+00
-5.271731859341866056e-01,5.812868873719451157e-01,-7.905678570074889389e-03,1.064603236835556688e+00,-3.683141999601793337e-01,-2.566688258428403979e-01,1.585500000000000043e+01,2.000000000000000000e+00
-5.262309180463259350e-01,5.888255662577157601e-01,-3.050238388224089936e-02,8.180621627326797318e-01,-3.449287197222312140e-01,-2.974786708175765626e-01,1.585999999999999943e+01,2.000000000000000000e+00
-5.324676826871820312e-01,6.104474159271183753e-01,-5.745517139451778582e-02,5.888940294734559266e-01,-3.204832948695915951e-01,-3.295559123048490413e-01,1.586500000000000021e+01,2.000000000000000000e+00
-5.382699653543047136e-01,6.199413440141514631e-01,-7.850617369002714507e-02,3.420142280118462219e-01,-2.951071388357653369e-01,-3.453830902785361423e-01,1.586999999999999922e+01,2.000000000000000000e+00
-5.387720412987722085e-01,6.317360955126566369e-01,-8.871864730803981358e-02,1.452088409563239702e-01,-2.730982992119991293e-01,-3.603212565387740041e-01,1.587500000000000000e+01,2.000000000000000000e+00
-5.413730672496062102e-01,6.475509890590931406e-01,-9.483251837469293399e-02,-1.184525753708384754e-02,-2.482067435303753067e-01,-3.872504854441954358e-01,1.588000000000000078e+01,2.000000000000000000e+00
-5.499906457950051175e-01,6.662028290080138637e-01,-9.407079052421808696e-02,-1.104018920820432625e-01,-2.338027405008818449e-01,-4.243932374521655060e-01,1.588499999999999979e+01,2.000000000000000000e+00
-5.567478387220464731e-01,6.896642424341919986e-01,-8.371659567587592943e-02,-1.918269464786885592e-01,-2.166093345243444712e-01,-4.652491333497281722e-01,1.589000000000000057e+01,2.000000000000000000e+00
-5.742965655845314599e-01,7.072454250022168765e-01,-7.158945112103402841e-02,-2.437747084744844583e-01,-2.037806970412033292e-01,-4.969456290634107209e-01,1.589499999999999957e+01,2.000000000000000000e+00
-5.943336932928793281e-01,7.128136210485200852e-01,-4.671289232107485312e-02,-3.192831940665161183e-01,-2.072092594676687993e-01,-5.231104055881606874e-01,1.590000000000000036e+01,2.000000000000000000e+00
-6.276273476187312905e-01,7.073344366881546552e-01,-1.255871695198428929e-02,-3.998345702955128367e-01,-2.155718255525512494e-01,-5.497135532638499633e-01,1.590499999999999936e+01,2.000000000000000000e+00
-6.608165958882579183e-01,6.930359764876627970e-01,2.373016270367894059e-02,-4.687081840464321636e-01,-2.367006552178296808e-01,-5.726651810763155881e-01,1.591000000000000014e+01,2.000000000000000000e+00
-6.865922302279621192e-01,6.677477129392983546e-01,5.880080329492891333e-02,-4.813713910719428224e-01,-2.582578926692736254e-01,-5.842209873059714953e-01,1.591499999999999915e+01,2.000000000000000000e+00
-7.093740975339516419e-01,6.211651552177085422e-01,9.185304673724295488e-02,-4.439788374954805050e-01,-3.022625293708210426e-01,-6.023757251510433175e-01,1.591999999999999993e+01,2.000000000000000000e+00
-7.203477174286607720e-01,5.823412811185255666e-01,1.116985673122109501e-01,-3.408955141629127494e-01,-3.354888178521118203e-01,-6.197182621373444888e-01,1.592500000000000071e+01,2.000000000000000000e+00
-7.281601756270921211e-01,5.526746876690948884e-01,1.238287537389281268e-01,-2.079407379655100474e-01,-3.636963433845489813e-01,-6.447532794084057661e-01,1.592999999999999972e+01,2.000000000000000000e+00
-7.315014613900264751e-01,5.401856020107885792e-01,1.335486544404482223e-01,-6.819882436999424868e-02,-3.699587628078387369e-01,-6.667888149271525844e-01,1.593500000000000050e+01,2.000000000000000000e+00
-7.290169386052336442e-01,5.311588289102812110e-01,1.415709276906291780e-01,5.686927783241942091e-02,-3.710458278656005859e-01,-6.974409502503842173e-01,1.593999999999999950e+01,2.000000000000000000e+00
-7.295143584830607875e-01,5.349622988255730016e-01,1.516433278140334184e-01,1.366600706573623814e-01,-3.674491514874437259e-01,-7.140651932543139457e-01,1.594500000000000028e+01,2.000000000000000000e+00
-7.270654082298282361e-01,5.409103732743595350e-01,1.667996040632025445e-01,1.502914750888888484e-01,-3.563576816292862715e-01,-7.143643015326136547e-01,1.594999999999999929e+01,2.000000000000000000e+00
-7.270314100078361097e-01,5.460225731631326296e-01,1.792525171135333772e-01,1.184168899982074308e-01,-3.278857586761880216e-01,-6.993972694141401547e-01,1.595500000000000007e+01,2.000000000000000000e+00
-7.406953184967169923e-01,5.440024781447851954e-01,1.975962517263371021e-01,5.713949264382500726e-02,-2.939634692242410474e-01,-6.698199879696634662e-01,1.596000000000000085e+01,2.000000000000000000e+00
-7.492932933641369697e-01,5.468778043676200129e-01,2.072716120949410490e-01,-2.303131839319981500e-03,-2.671180382912686779e-01,-6.414918015345796309e-01,1.596499999999999986e+01,2.000000000000000000e+00
-7.816604432060879626e-01,5.876212753142622258e-01,2.177816327384721751e-01,-7.590052360462752612e-02,-2.355801064247483312e-01,-6.154096558774114767e-01,1.597000000000000064e+01,2.000000000000000000e+00
-8.314874876858263653e-01,6.581640309850923520e-01,2.304705869814436259e-01,-1.242166209029320900e-01,-1.999910424361814598e-01,-5.710167792430983491e-01,1.597499999999999964e+01,2.000000000000000000e+00
-8.992909239899341545e-01,7.631649265487044920e-01,2.552037837582225022e-01,-1.842831974948635487e-01,-1.679634759707798186e-01,-5.255512914686263359e-01,1.598000000000000043e+01,2.000000000000000000e+00
-9.878899018841220681e-01,8.915189780110549522e-01,2.878454151475031697e-01,-2.504751191193206328e-01,-1.292022479231334509e-01,-4.843739957329376011e-01,1.598499999999999943e+01,2.000000000000000000e+00
-1.077447776219277786e+00,9.993213518491419478e-01,3.104392134710404205e-01,-2.869736440758345331e-01,-8.477440886651550767e-02,-4.691046631727969762e-01,1.599000000000000021e+01,2.000000000000000000e+00
-1.194577435376021901e+00,1.102686235906268575e+00,3.195441240876324418e-01,-2.951870011320770759e-01,-2.618073430630490223e-02,-4.751328515117921869e-01,1.599499999999999922e+01,2.000000000000000000e+00
-1.281703174737122808e+00,1.137216555814485330e+00,2.955293072898824702e-01,-2.944348429595385896e-01,3.917454471548756367e-02,-4.965938243851647504e-01,1.600000000000000000e+01,2.000000000000000000e+00
-1.355379062877173801e+00,1.143293238556385649e+00,2.301852702514318172e-01,-3.486484872480461461e-01,1.333989536876185877e-01,-5.425517406549308363e-01,1.600499999999999901e+01,2.000000000000000000e+00
-1.386606824231382262e+00,1.084060268230014223e+00,1.436943759263825116e-01,-4.077416036133785782e-01,2.273269011937876227e-01,-6.256970237006230784e-01,1.601000000000000156e+01,2.000000000000000000e+00
-1.362192586835857755e+00,9.712623643552732444e-01,7.018233998698808485e-02,-3.825942087829355409e-01,3.055242293990466651e-01,-7.391269680029384226e-01,1.601500000000000057e+01,2.000000000000000000e+00
-1.280161411499517454e+00,8.047890182902309730e-01,-9.090834963458934923e-03,-3.151047806201326962e-01,3.695465713547209097e-01,-9.029950098970329631e-01,1.601999999999999957e+01,2.000000000000000000e+00
-1.158294037961037581e+00,6.556497252359847483e-01,-8.255712213548162259e-02,-2.468570906073942473e-01,4.096589525757034500e-01,-1.074650759506246223e+00,1.602499999999999858e+01,2.000000000000000000e+00
-1.038399349845333663e+00,5.485850279286285103e-01,-1.355807872513817292e-01,-2.172893285751342773e-01,4.287087870839771386e-01,-1.177129630429787577e+00,1.603000000000000114e+01,2.000000000000000000e+00
-8.893829722862467424e-01,4.559144856959863046e-01,-1.787285144335253040e-01,-3.005799474830083695e-01,4.425100778890235231e-01,-1.295380706310075292e+00,1.603500000000000014e+01,2.000000000000000000e+00
-8.136457796567750922e-01,3.833367013438682691e-01,-2.073007112272157448e-01,-4.100980351627844245e-01,4.198597876724243783e-01,-1.355021195170650117e+00,1.603999999999999915e+01,2.000000000000000000e+00
-7.657456605077878065e-01,1.859905179396889041e-01,-2.723829171317834197e-01,-5.316581653428064103e-01,3.417972961689759170e-01,-1.380234446219704925e+00,1.604500000000000171e+01,2.000000000000000000e+00
-7.548987357664453945e-01,-7.283342202128209944e-03,-3.305783967663717959e-01,-7.274352830345471865e-01,2.213597853232617263e-01,-1.401876375881465409e+00,1.605000000000000071e+01,2.000000000000000000e+00
-7.783063413816169174e-01,-1.533638711598582852e-02,-3.486321441473144156e-01,-9.497295647229184734e-01,1.036298378587959673e-01,-1.412106403461925730e+00,1.605499999999999972e+01,2.000000000000000000e+00
-8.564914760118325088e-01,2.170696516027091350e-01,-2.924643671816141155e-01,-1.091148236527900162e+00,-1.258617530167448553e-02,-1.420080006967237907e+00,1.605999999999999872e+01,2.000000000000000000e+00
-9.437066502257802636e-01,4.827860346219681187e-01,-1.741721704795934078e-01,-1.065344576927360620e+00,-4.871499830750718185e-02,-1.449493543219935177e+00,1.606500000000000128e+01,2.000000000000000000e+00
-1.067391323048395124e+00,7.066932131778962400e-01,8.271602898249710151e-03,-8.830189205384935125e-01,-2.181843181563434403e-02,-1.548867500117364848e+00,1.607000000000000028e+01,2.000000000000000000e+00
-1.176216222339977913e+00,7.041650953166406213e-01,1.151059517081329114e-01,-7.008067464315650419e-01,3.768587778311822956e-02,-1.642471032022820188e+00,1.607499999999999929e+01,2.000000000000000000e+00
-1.264038484490913827e+00,5.545274983818972991e-01,1.790596849105715871e-01,-5.852930681235941623e-01,1.022249604214548468e-01,-1.696318048305470061e+00,1.607999999999999829e+01,2.000000000000000000e+00
-1.344268758574048928e+00,3.327674534302753617e-01,2.500311628347545723e-01,-5.560393786217854295e-01,1.458836609950509289e-01,-1.716587140581400606e+00,1.608500000000000085e+01,2.000000000000000000e+00
-1.385357566369628923e+00,1.646594415451506088e-01,3.404227290728617517e-01,-5.364047917418599543e-01,1.726921226283690547e-01,-1.702520671754372161e+00,1.608999999999999986e+01,2.000000000000000000e+00
-1.408825597111334149e+00,9.218777045396372993e-02,4.418604000506040075e-01,-4.821499535207448006e-01,1.925986938907346957e-01,-1.657846403413399283e+00,1.609499999999999886e+01,2.000000000000000000e+00
-1.408359939746572032e+00,9.056705266556336342e-02,5.350575429947119765e-01,-4.406767336541239644e-01,2.098071523985753084e-01,-1.578476566732530895e+00,1.610000000000000142e+01,2.000000000000000000e+00
-1.367135267576613300e+00,1.369795324033721007e-01,5.470411163244067732e-01,-5.072117499918614714e-01,2.188572274871058987e-01,-1.499194171096401629e+00,1.610500000000000043e+01,2.000000000000000000e+00
-1.316113426074514203e+00,1.807148287312674573e-01,5.180153883035554241e-01,-6.207819955104827425e-01,2.342769362116309817e-01,-1.406361394375718943e+00,1.610999999999999943e+01,2.000000000000000000e+00
-1.211691626229735697e+00,2.395751978772902857e-01,4.369138934619365422e-01,-6.218830333790843490e-01,2.560320894534457437e-01,-1.346824540429084838e+00,1.611499999999999844e+01,2.000000000000000000e+00
-1.116823792136728111e+00,2.855814280587432030e-01,3.657276744715231565e-01,-3.978006791548542864e-01,2.822115187336018405e-01,-1.329253968801616281e+00,1.612000000000000099e+01,2.000000000000000000e+00
-1.046274335747380047e+00,2.995385387545005940e-01,3.214243825097480300e-01,-9.024568479656677744e-02,3.002527073020383463e-01,-1.348499664171641799e+00,1.612500000000000000e+01,2.000000000000000000e+00
-9.831039518092211660e-01,2.975639053500427900e-01,2.769747058260618178e-01,2.866154358628159038e-01,3.112366539448730984e-01,-1.394061309308045171e+00,1.612999999999999901e+01,2.000000000000000000e+00
-9.490557415498470650e-01,2.791927832233636608e-01,2.425625262554860218e-01,5.326596733440560616e-01,3.057569442309606145e-01,-1.436269529695268554e+00,1.613500000000000156e+01,2.000000000000000000e+00
-9.343481203512614686e-01,2.317307612663347949e-01,2.061637466122295259e-01,6.886860346234340291e-01,2.802065641517919037e-01,-1.468491072085696292e+00,1.614000000000000057e+01,2.000000000000000000e+00
-9.393538764971763877e-01,1.808086824697694994e-01,1.757850199695136784e-01,6.865647378388988198e-01,2.487929724205479864e-01,-1.484948279234375113e+00,1.614499999999999957e+01,2.000000000000000000e+00
-9.480597480193426740e-01,1.537275187526493114e-01,1.512817262996107304e-01,5.882336629534823391e-01,2.004443681515539755e-01,-1.490914344787597656e+00,1.614999999999999858e+01,2.000000000000000000e+00
-9.455973215082913441e-01,1.719300641944252195e-01,1.305101573978134366e-01,4.288132051248806920e-01,1.495231119770163153e-01,-1.469458831194773607e+00,1.615500000000000114e+01,2.000000000000000000e+00
-9.447072329902613808e-01,2.025509539897193678e-01,1.049923082202511571e-01,2.241257793431285505e-01,1.041182543443845143e-01,-1.426848269976651817e+00,1.616000000000000014e+01,2.000000000000000000e+00
-9.391137540071188283e-01,2.302485715535462774e-01,8.205470206955683965e-02,4.649714278531613676e-02,7.071826936715849832e-02,-1.386615725042091185e+00,1.616499999999999915e+01,2.000000000000000000e+00
-9.306766017630487831e-01,2.624510133650020394e-01,6.623301535652038885e-02,-1.138485270804407562e-01,4.481662839381750363e-02,-1.353776192191566752e+00,1.617000000000000171e+01,2.000000000000000000e+00
-9.235221597727939491e-01,2.856995117353487434e-01,7.404804305658281571e-02,-1.698182151109336457e-01,3.254057378664121369e-02,-1.348608243738094625e+00,1.617500000000000071e+01,2.000000000000000000e+00
-9.202631478192049297e-01,3.117133876133443837e-01,1.111501626330701209e-01,-1.891837324104513884e-01,2.328854534439949234e-02,-1.371554416946618282e+00,1.617999999999999972e+01,2.000000000000000000e+00
-9.270776080208790182e-01,3.095035376340142252e-01,1.629065455758800240e-01,-1.378498992743972251e-01,1.494647895659409129e-02,-1.404013831314260052e+00,1.618499999999999872e+01,2.000000000000000000e+00
-9.374217279300893768e-01,2.849980101718933012e-01,2.102323669712709842e-01,-9.804473752760893557e-02,1.149850092998906323e-02,-1.434542816558250777e+00,1.619000000000000128e+01,2.000000000000000000e+00
-9.536672974352107257e-01,2.657859895104557335e-01,2.532007562978882409e-01,-6.432083547206263185e-02,1.774459527478517221e-02,-1.451618830438355268e+00,1.619500000000000028e+01,2.000000000000000000e+00
-9.678336581730230259e-01,2.508963123692323771e-01,2.921228957242760771e-01,-8.228807063335154270e-02,2.126781529577532331e-02,-1.458693153512268914e+00,1.619999999999999929e+01,2.000000000000000000e+00
-9.865588108314624627e-01,2.408213268848733990e-01,3.153084367353050088e-01,-1.072283581026450550e-01,3.261614094245309653e-02,-1.445855700768998275e+00,1.620499999999999829e+01,2.000000000000000000e+00
-1.004063617816508103e+00,2.357225061737242833e-01,3.342620680530963284e-01,-1.497374672780618365e-01,5.216650935267407724e-02,-1.423364147369286403e+00,1.621000000000000085e+01,2.000000000000000000e+00
-1.020586235446767631e+00,2.375740038868643933e-01,3.353181014010941929e-01,-1.883643052653011241e-01,7.882004037578441147e-02,-1.386693143974187414e+00,1.621499999999999986e+01,2.000000000000000000e+00
-1.030091640876620085e+00,2.366210703568860929e-01,3.256883239070363922e-01,-2.160100245918786799e-01,9.720888939761032632e-02,-1.339389696105114158e+00,1.621999999999999886e+01,2.000000000000000000e+00
-1.032736919955400623e+00,2.260399835773070631e-01,3.073506281204950730e-01,-2.035007951985955965e-01,1.236716658289345738e-01,-1.302201660392297899e+00,1.622500000000000142e+01,2.000000000000000000e+00
-1.030154765699128783e+00,2.219481282161252234e-01,2.879294089565707648e-01,-1.644856966722273439e-01,1.484235884633684777e-01,-1.274963652613365417e+00,1.623000000000000043e+01,2.000000000000000000e+00
-1.016666439460983229e+00,2.283123658226374753e-01,2.677498681627916155e-01,-8.844624901800515748e-02,1.695930421346723838e-01,-1.266528858210709485e+00,1.623499999999999943e+01,2.000000000000000000e+00
-9.939180631835609070e-01,2.241403700640876850e-01,2.305508096075044311e-01,-1.382565203245458146e-02,1.962125075367666116e-01,-1.283618380772835188e+00,1.623999999999999844e+01,2.000000000000000000e+00
-9.767786237779771952e-01,2.253377308290953063e-01,2.044946334101083729e-01,2.336993903445281490e-02,2.136795271893686121e-01,-1.308711870087017060e+00,1.624500000000000099e+01,2.000000000000000000e+00
-9.579146442885512203e-01,2.238642520360866750e-01,1.797230154940938907e-01,3.587000609396318734e-02,2.332769939662938108e-01,-1.331868665404565721e+00,1.625000000000000000e+01,2.000000000000000000e+00
-9.439134169715726053e-01,2.017876693251807463e-01,1.624665286467432412e-01,3.780345241769183379e-02,2.459098994731903076e-01,-1.371660486980833760e+00,1.625499999999999901e+01,2.000000000000000000e+00
-9.372519421218782343e-01,1.764206885686996629e-01,1.577080379494611717e-01,5.332851688871952101e-02,2.454486380067304740e-01,-1.390025030474749235e+00,1.626000000000000156e+01,2.000000000000000000e+00
-9.436353526884471155e-01,1.601431827542818542e-01,1.643176816214006464e-01,4.936848430669008025e-02,2.353525471374046940e-01,-1.420845658513397058e+00,1.626500000000000057e+01,2.000000000000000000e+00
-9.429569732122655701e-01,1.570442011293720908e-01,1.694621205723777779e-01,3.465648409086524717e-02,2.139501169970999817e-01,-1.456775702786557991e+00,1.626999999999999957e+01,2.000000000000000000e+00
-9.422772556276155509e-01,1.654330716126704848e-01,1.542586266545577511e-01,5.880209187606079066e-03,1.956648285693239342e-01,-1.488298755490131908e+00,1.627499999999999858e+01,2.000000000000000000e+00
-9.391470979760525584e-01,1.632784350247143412e-01,1.571033645554060776e-01,-6.365996301823498293e-02,1.802539741272388696e-01,-1.492393270146822992e+00,1.628000000000000114e+01,2.000000000000000000e+00
-9.408291889990485490e-01,1.572428030493482898e-01,1.643711918250647386e-01,-9.550514216221360486e-02,1.604561868695844051e-01,-1.509946358520166898e+00,1.628500000000000014e+01,2.000000000000000000e+00
-9.456259669071280793e-01,1.578689519620408988e-01,1.681885523441581376e-01,-1.120989877152046565e-01,1.489087036695627142e-01,-1.523043283077102128e+00,1.628999999999999915e+01,2.000000000000000000e+00
-9.518216137941499788e-01,1.587472161966336504e-01,1.638404440539061313e-01,-1.246169523733032664e-01,1.258179347146294591e-01,-1.535927521119774930e+00,1.629500000000000171e+01,2.000000000000000000e+00
-9.643317849066452840e-01,1.566186509016922190e-01,1.529075487235656006e-01,-1.256622523069381714e-01,1.145934711153929059e-01,-1.529381976460348014e+00,1.630000000000000071e+01,2.000000000000000000e+00
-9.762129189991248790e-01,1.437109706725895608e-01,1.424740660514650370e-01,-1.449003284641427747e-01,1.122634376226017139e-01,-1.520613176723626392e+00,1.630499999999999972e+01,2.000000000000000000e+00
-9.879987191785369882e-01,1.337513721015139156e-01,1.378664849671902559e-01,-1.641071936226575489e-01,1.149721770113402708e-01,-1.495089199612752884e+00,1.630999999999999872e+01,2.000000000000000000e+00
-9.865190983116542967e-01,1.241365931018684754e-01,1.364816655922647670e-01,-1.856356197411951903e-01,1.122958775256983344e-01,-1.477483703947177984e+00,1.631500000000000128e+01,2.000000000000000000e+00
-9.773464207929847269e-01,1.280080195824449818e-01,1.258183214006369788e-01,-1.901937716956205171e-01,1.213679283977402434e-01,-1.461811941936016268e+00,1.632000000000000028e+01,2.000000000000000000e+00
-9.638800935042844964e-01,1.273366511369312115e-01,1.124575956486101869e-01,-1.972005865960145821e-01,1.332612116210257491e-01,-1.451404894796830991e+00,1.632499999999999929e+01,2.000000000000000000e+00
-9.430068600241808818e-01,1.210146810127736838e-01,9.795019790343967303e-02,-2.129265357408000880e-01,1.469179035110713682e-01,-1.444105921982618002e+00,1.632999999999999829e+01,2.000000000000000000e+00
-9.199258458096198909e-01,1.189056055875966911e-01,8.146909420009725011e-02,-2.150395662204787339e-01,1.643767919293408486e-01,-1.420271917310575338e+00,1.633500000000000085e+01,2.000000000000000000e+00
-8.941304947481831800e-01,1.385296012552842404e-01,6.382213575256395766e-02,-1.984152354948951202e-01,1.767791417757785533e-01,-1.401702052800262610e+00,1.633999999999999986e+01,2.000000000000000000e+00
-8.647353421024057685e-01,1.636673954065098469e-01,4.208768436775011529e-02,-1.830818951129913330e-01,1.948130183424747197e-01,-1.380747532917775411e+00,1.634499999999999886e+01,2.000000000000000000e+00
-8.442145726391917515e-01,1.772240068260118040e-01,2.796547130025879221e-02,-1.788247068553635299e-01,2.212436567805340371e-01,-1.359638349030307447e+00,1.635000000000000142e+01,2.000000000000000000e+00
-8.292004595156728941e-01,1.746950651836612911e-01,2.663350736470718877e-02,-1.866487123861976793e-01,2.485826538723084345e-01,-1.343562084693954883e+00,1.635500000000000043e+01,2.000000000000000000e+00
-8.186059627660944304e-01,1.674925931824267078e-01,2.858912758487432149e-02,-2.375969641478154204e-01,2.602831442169304954e-01,-1.317540635177994135e+00,1.635999999999999943e+01,2.000000000000000000e+00
-8.084429720921518792e-01,1.613289619222559867e-01,4.520268283138999948e-02,-2.768349300373935673e-01,2.693408271777021912e-01,-1.300935532079724233e+00,1.636499999999999844e+01,2.000000000000000000e+00
-8.057530214114889677e-01,1.522336656440591296e-01,6.403914689685377692e-02,-2.933752684479592476e-01,2.685295650486983488e-01,-1.282041146541331056e+00,1.637000000000000099e+01,2.000000000000000000e+00
-8.081107609241449108e-01,1.490118247357882231e-01,8.547751849909682176e-02,-2.679748367092600336e-01,2.688390178189669633e-01,-1.286414527615945769e+00,1.637500000000000000e+01,2.000000000000000000e+00
-8.146362308475100233e-01,1.351333186142497089e-01,1.383298057427391203e-01,-2.044296005311033448e-01,2.513713353032829834e-01,-1.316514257977398961e+00,1.637999999999999901e+01,2.000000000000000000e+00
-8.283090634689109777e-01,1.237921745104763327e-01,1.740781044943112144e-01,-1.732264258316988936e-01,2.312086176052179920e-01,-1.349320614087806236e+00,1.638500000000000156e+01,2.000000000000000000e+00
-8.438057349433555343e-01,1.180699419740101480e-01,2.094806770684503605e-01,-1.569462234137612988e-01,2.056407204633714514e-01,-1.382269441808507304e+00,1.639000000000000057e+01,2.000000000000000000e+00
-8.643860227926627449e-01,1.264266197642958389e-01,2.324517186866991714e-01,-1.450659534591943189e-01,1.719380864861946301e-01,-1.403550760252502583e+00,1.639499999999999957e+01,2.000000000000000000e+00
-8.771362881958678637e-01,1.335705171618545850e-01,2.557535364782861920e-01,-1.404891634461258865e-01,1.546162659463167499e-01,-1.418667752234321622e+00,1.639999999999999858e+01,2.000000000000000000e+00
-8.967585280677856652e-01,1.445930926617542411e-01,2.698687422107560741e-01,-1.421109371407127397e-01,1.216141806025088368e-01,-1.410812760107182928e+00,1.640500000000000114e+01,2.000000000000000000e+00
-9.169525199319259468e-01,1.406834174433446161e-01,2.763876960431739249e-01,-1.620685652153514567e-01,1.039979099878085150e-01,-1.386545146107968307e+00,1.641000000000000014e+01,2.000000000000000000e+00
-9.293547168695065475e-01,1.252579114098140434e-01,2.816083514842941948e-01,-1.987593899891454963e-01,8.248325795264295490e-02,-1.355383222134191712e+00,1.641499999999999915e+01,2.000000000000000000e+00
-9.418761012328611404e-01,1.165602946646628890e-01,2.677542428886187098e-01,-2.485764743617926154e-01,5.951547530756770565e-02,-1.319132364601665941e+00,1.642000000000000171e+01,2.000000000000000000e+00
-9.572843189146735821e-01,1.175558743786942195e-01,2.540427783196588241e-01,-2.869698786014650560e-01,4.520283853862298168e-02,-1.292606946124594147e+00,1.642500000000000071e+01,2.000000000000000000e+00
-9.693608129002430074e-01,1.284393000377217486e-01,2.338250906454635569e-01,-3.294957717735021441e-01,3.517349034350285286e-02,-1.264165177456620270e+00,1.642999999999999972e+01,2.000000000000000000e+00
-9.771290794690675741e-01,1.643997457843903998e-01,2.131504376887763674e-01,-3.662184980101204079e-01,3.534541141674845538e-02,-1.241725911465653365e+00,1.643499999999999872e+01,2.000000000000000000e+00
-9.780474643107781585e-01,1.725618289511226533e-01,1.909773777332580136e-01,-3.783179595263510553e-01,4.785427162587052585e-02,-1.203722452183707103e+00,1.644000000000000128e+01,2.000000000000000000e+00
-9.745478447540929512e-01,1.886286550523235683e-01,1.653911826458602796e-01,-3.863383214597354565e-01,7.446542842607102586e-02,-1.139832914961567356e+00,1.644500000000000028e+01,2.000000000000000000e+00
-9.647347369948606755e-01,1.991756786846675675e-01,1.405454107633492544e-01,-3.567472906942286137e-01,9.838945368716676965e-02,-1.085781708760118480e+00,1.644999999999999929e+01,2.000000000000000000e+00
-9.620307542469125339e-01,2.164202157638402957e-01,1.153352108116625641e-01,-3.126178501424559664e-01,1.220629682369146762e-01,-1.043938184803307578e+00,1.645499999999999829e+01,2.000000000000000000e+00
-9.507612931213558216e-01,2.269475986385225408e-01,9.201216123516009482e-02,-2.449574925228983902e-01,1.524265547349994421e-01,-1.005205655929744424e+00,1.646000000000000085e+01,2.000000000000000000e+00
-9.489974489767158961e-01,2.252122619291691275e-01,8.834561564359641461e-02,-2.029615139732167117e-01,1.779726784384349780e-01,-9.654533921452349565e-01,1.646499999999999986e+01,2.000000000000000000e+00
-9.508620067150092003e-01,2.225496889516596632e-01,9.053778830608963379e-02,-1.660703162218312712e-01,1.983329926605239546e-01,-9.290269801880102207e-01,1.646999999999999886e+01,2.000000000000000000e+00
-9.556849878127731124e-01,2.209675965709214096e-01,9.703801785519455825e-02,-1.738346899083398345e-01,2.179051086477026555e-01,-8.730749151980310430e-01,1.647500000000000142e+01,2.000000000000000000e+00
-9.495506684044447976e-01,2.213287473036404385e-01,1.140642252381470489e-01,-1.781951189041137695e-01,2.326973381367178351e-01,-8.468780749484059456e-01,1.648000000000000043e+01,2.000000000000000000e+00
-9.535638304862358305e-01,2.124399658289191084e-01,1.405473512716304552e-01,-1.916748351490079050e-01,2.449231436653619143e-01,-8.280922066748162003e-01,1.648499999999999943e+01,2.000000000000000000e+00
-9.514291450136411754e-01,1.915313373328355606e-01,1.655267158425154650e-01,-2.111767486211242051e-01,2.472430248795273455e-01,-8.206497693284668937e-01,1.648999999999999844e+01,2.000000000000000000e+00
-9.827357395018477826e-01,1.671038669594565040e-01,1.836926810872181737e-01,-2.103346343877142421e-01,2.420600308778725618e-01,-8.170752361836425282e-01,1.649500000000000099e+01,2.000000000000000000e+00
-9.992409096602932195e-01,1.338893006048789136e-01,1.978330900624145072e-01,-2.047550458280171237e-01,2.126974740235800798e-01,-7.829041875816419305e-01,1.650000000000000000e+01,2.000000000000000000e+00
-1.012730157845532997e+00,1.211634609238772808e-01,2.060325132133451198e-01,-1.715362150791732154e-01,1.855893440093759339e-01,-7.668280546155230581e-01,1.650499999999999901e+01,2.000000000000000000e+00
-1.009149273310389727e+00,1.264985215492591686e-01,2.183218476330521796e-01,-1.487937082982411230e-01,1.505471358422113826e-01,-7.611285395876634663e-01,1.651000000000000156e+01,2.000000000000000000e+00
-9.974221727826051431e-01,1.437385776809404214e-01,2.431567918569998710e-01,-1.134651614128003444e-01,1.200900857126557669e-01,-7.713296409030917511e-01,1.651500000000000057e+01,2.000000000000000000e+00
-1.003850831238005448e+00,1.426413613711492168e-01,2.469633531170424834e-01,-1.204410889976935961e-01,9.684810764273574235e-02,-7.810947372112051479e-01,1.651999999999999957e+01,2.000000000000000000e+00
-9.822364986890483873e-01,1.227137423194840093e-01,2.513635574224333813e-01,-1.516671198964527623e-01,8.569321757951917085e-02,-7.908838180348713998e-01,1.652499999999999858e+01,2.000000000000000000e+00
-9.697516194527291411e-01,9.535758404175903591e-02,2.379744093816950345e-01,-1.420482215366616896e-01,8.200635592129892903e-02,-8.203323203426233778e-01,1.653000000000000114e+01,2.000000000000000000e+00
-9.628836738729429356e-01,7.313531149782784291e-02,2.263580743260777406e-01,-1.288631044703880124e-01,7.881874950597420049e-02,-8.262147749213272219e-01,1.653500000000000014e+01,2.000000000000000000e+00
-9.547646707578330005e-01,7.080793318499782607e-02,2.091697083165499627e-01,-1.168551849118645292e-01,8.484709330732015387e-02,-8.508113896909659246e-01,1.653999999999999915e+01,2.000000000000000000e+00
-9.571617988572316271e-01,6.339999199202916991e-02,1.838180424417208136e-01,-1.778979009329157146e-01,9.926411468216544964e-02,-8.682180536754795508e-01,1.654500000000000171e+01,2.000000000000000000e+00
-9.584391216330320207e-01,5.726597086342608695e-02,1.673445425552512189e-01,-2.434659476971340886e-01,1.106202574869953881e-01,-8.823946199112918665e-01,1.655000000000000071e+01,2.000000000000000000e+00
-9.713336853446754571e-01,5.465735258854856338e-02,1.738423421635681976e-01,-3.055306780067675310e-01,1.449933379527016952e-01,-9.269593069223022175e-01,1.655499999999999972e+01,2.000000000000000000e+00
-9.937559494767662649e-01,2.276278818071534107e-02,1.563748469472860669e-01,-3.618179920857219622e-01,1.652195414570882814e-01,-9.354530126862985462e-01,1.655999999999999872e+01,2.000000000000000000e+00
-9.894053440946977140e-01,2.277263505793086090e-02,1.520797077012454313e-01,-4.235344181604903668e-01,1.827376905711523836e-01,-8.848641054993583444e-01,1.656500000000000128e+01,2.000000000000000000e+00
-9.957794912096445961e-01,1.849523225415344169e-02,1.430071406609477735e-01,-4.669353605175855515e-01,2.041518713392003470e-01,-8.581767959503213694e-01,1.657000000000000028e+01,2.000000000000000000e+00
-9.962926188134806349e-01,1.944894902729626257e-02,1.533090319829835957e-01,-5.201899288461137028e-01,2.307230572921185607e-01,-8.348643779754638672e-01,1.657499999999999929e+01,2.000000000000000000e+00
-1.001732951436588692e+00,2.103100380117775559e-02,1.628937883709488665e-01,-5.605720383263812501e-01,2.495289507824280106e-01,-8.315080884382461957e-01,1.657999999999999829e+01,2.000000000000000000e+00
-1.014776251219161152e+00,2.010684166842532233e-02,1.794735704564505985e-01,-6.193544928309807629e-01,2.606910875387553617e-01,-8.181164176845080460e-01,1.658500000000000085e+01,2.000000000000000000e+00
-1.028355944994275850e+00,1.599278995136325238e-02,1.951847616293173326e-01,-6.658009135300418935e-01,2.743131178620888955e-01,-7.940546957672018902e-01,1.658999999999999986e+01,2.000000000000000000e+00
-1.046700274507809558e+00,1.739676770117491375e-02,2.222102251022848307e-01,-7.317900934092957943e-01,2.735830374560482836e-01,-7.770492709261260789e-01,1.659499999999999886e+01,2.000000000000000000e+00
-1.063501370297580850e+00,1.441263816315633411e-02,2.422986673894556020e-01,-7.693199776788421929e-01,2.681394090446973522e-01,-7.431097361697727166e-01,1.660000000000000142e+01,2.000000000000000000e+00
-1.070757843209782401e+00,4.284579660518055347e-03,2.618019169016145842e-01,-7.841555476188659668e-01,2.564844556436685630e-01,-7.036311802411450156e-01,1.660500000000000043e+01,2.000000000000000000e+00
-1.059040845446226342e+00,-9.944591275056684915e-03,2.691330038739450092e-01,-7.918476398729640264e-01,2.420057514002580956e-01,-6.566395938202655991e-01,1.660999999999999943e+01,2.000000000000000000e+00
-1.039600309091062824e+00,-3.154687715702986922e-02,2.637356109708686169e-01,-7.833329580649445179e-01,2.145449347036257337e-01,-6.032132927583959692e-01,1.661499999999999844e+01,2.000000000000000000e+00
-1.011831480209006262e+00,-5.630886535456664649e-02,2.504067376492148389e-01,-7.537179856782979526e-01,1.903595538327104153e-01,-5.721061969906655609e-01,1.662000000000000099e+01,2.000000000000000000e+00
-9.768739448580721074e-01,-8.108480198012726903e-02,2.389597543496060073e-01,-7.160225732959427658e-01,1.573652156142708036e-01,-5.533671416678711541e-01,1.662500000000000000e+01,2.000000000000000000e+00
-9.536671588992443604e-01,-1.016811341028751314e-01,2.315153511117106766e-01,-6.838163847482631175e-01,1.317691856755502933e-01,-5.488669138256703217e-01,1.662999999999999901e+01,2.000000000000000000e+00
-9.285207782519907527e-01,-1.245268300555001234e-01,2.170173728368080535e-01,-6.323982992020036331e-01,1.078443661097410466e-01,-5.787022267021814104e-01,1.663500000000000156e+01,2.000000000000000000e+00
-9.269519757008346517e-01,-1.311474351236578961e-01,2.087400852878903701e-01,-6.082154847961525057e-01,1.058115578764611819e-01,-6.191174450922534156e-01,1.664000000000000057e+01,2.000000000000000000e+00
-9.373811949630125318e-01,-1.366022191187495349e-01,2.063928562010327039e-01,-5.890967183130119134e-01,1.121762148209080046e-01,-6.473030884551795872e-01,1.664499999999999957e+01,2.000000000000000000e+00
-9.612825050315908504e-01,-1.349730227717888809e-01,2.132355609432575738e-01,-5.697114759613552959e-01,1.276041067013294061e-01,-6.786601500678187682e-01,1.664999999999999858e+01,2.000000000000000000e+00
-9.908453685330083083e-01,-1.334731405270318527e-01,2.326056776982804442e-01,-5.532790792162416427e-01,1.396912510295131582e-01,-6.907044053077697754e-01,1.665500000000000114e+01,2.000000000000000000e+00
-1.022902985285401467e+00,-1.319308710818337949e-01,2.495162780422749971e-01,-5.260432472190628150e-01,1.514789309891595992e-01,-6.907044053077697754e-01,1.666000000000000014e+01,2.000000000000000000e+00
-1.062006084032563358e+00,-1.324286662276241977e-01,2.684491432067434569e-01,-5.019049981172633013e-01,1.621053637434596850e-01,-6.791776541089540320e-01,1.666499999999999915e+01,2.000000000000000000e+00
-1.106752664454227819e+00,-1.394622270425160404e-01,2.834862620362009755e-01,-4.876849621440511040e-01,1.737533676833303842e-01,-6.639037243390590870e-01,1.667000000000000171e+01,2.000000000000000000e+00
-1.153270925702248872e+00,-1.414366288105714520e-01,2.918296745524538993e-01,-4.718781800872470789e-01,1.762336165308000802e-01,-6.472395471194010153e-01,1.667500000000000071e+01,2.000000000000000000e+00
-1.227014439631026299e+00,-1.409282827886015055e-01,2.977856290729510302e-01,-4.576480476737241343e-01,1.888053829025149732e-01,-6.096002492819603269e-01,1.667999999999999972e+01,2.000000000000000000e+00
-1.282047899086392606e+00,-1.328816862986579306e-01,2.948898869907393694e-01,-4.389561924225234835e-01,2.006686111848821619e-01,-5.645613163770840659e-01,1.668499999999999872e+01,2.000000000000000000e+00
-1.334253917364070174e+00,-1.242711297752464028e-01,2.868973794150889711e-01,-4.058223011381956735e-01,2.054249414559762288e-01,-5.165248381795526367e-01,1.669000000000000128e+01,2.000000000000000000e+00
-1.388460722926486035e+00,-1.100016457162668465e-01,2.658960675092070236e-01,-3.655568412303473735e-01,2.149250889790680352e-01,-4.359127597297683954e-01,1.669500000000000028e+01,2.000000000000000000e+00
-1.434215385524373776e+00,-8.816205630641667235e-02,2.393650525365396686e-01,-3.563535501552272944e-01,2.331892070420510388e-01,-3.513039453794526978e-01,1.669999999999999929e+01,2.000000000000000000e+00
-1.473766862576958214e+00,-6.299113118913063358e-02,2.060419798203994013e-01,-3.510188736201792503e-01,2.658513074036296109e-01,-2.454157893323796746e-01,1.670499999999999829e+01,2.000000000000000000e+00
-1.510036976177933310e+00,-3.645875386625697240e-02,1.772864449372551499e-01,-3.628549648945913475e-01,3.024757735538997072e-01,-1.372259997435679169e-01,1.671000000000000085e+01,2.000000000000000000e+00
-1.545633347162342019e+00,-1.013135446344942681e-02,1.546946341115775780e-01,-3.651143908500671387e-01,3.332978892111664315e-01,-1.629847791492350373e-02,1.671499999999999986e+01,2.000000000000000000e+00
-1.573525405033721292e+00,9.485416298823252587e-03,1.344528333665644948e-01,-3.626968801330714975e-01,3.720697121911848981e-01,1.331611618012896181e-01,1.671999999999999886e+01,2.000000000000000000e+00
-1.593499218619131685e+00,2.892045825985668783e-02,1.186449441770774105e-01,-3.456329552230964497e-01,3.940594759535714919e-01,2.636174238347341880e-01,1.672500000000000142e+01,2.000000000000000000e+00
-1.610205691456914057e+00,5.949788500855801576e-02,1.053710111747088868e-01,-2.994321752980135809e-01,4.007693331691394301e-01,4.307598163182172479e-01,1.673000000000000043e+01,2.000000000000000000e+00
-1.628278812757419924e+00,8.377983478168166132e-02,1.029522911635818577e-01,-2.481624836901798192e-01,3.928383959802224101e-01,5.588052886991662360e-01,1.673499999999999943e+01,2.000000000000000000e+00
