label_header;thigh_Accel_X;thigh_Accel_Y;thigh_Accel_Z;thigh_Gyro_X;thigh_Gyro_Y;thigh_Gyro_Z;label_id
12.0120;-0.9944786;-0.0631476;0.0389162;0.0088780;0.0923665;0.0365163;8
12.0630;-0.9972474;-0.0570882;0.0311576;-0.0326675;0.0914026;0.0396506;8
12.1130;-0.9935387;-0.0657154;0.0387361;-0.0429173;0.0782801;0.0223011;8
12.1620;-0.9941809;-0.0540045;0.0370390;0.0009949;0.0730718;0.0194876;8
12.2130;-0.9871059;-0.0699957;0.0361922;0.0410615;0.0718988;-0.0084383;8
12.2620;-0.9938754;-0.0418616;0.0331680;0.0867798;0.0738827;-0.0193211;8
12.3130;-1.0004033;-0.0331608;0.0237796;-0.0098881;0.0959320;0.0287611;8
12.3630;-0.9707029;-0.0895666;-0.0330453;-0.0915624;0.1160421;-0.0487004;8
12.4120;-0.9996375;-0.0615693;0.0815527;-0.2156125;0.2508266;0.0055050;8
12.4630;-1.0070406;-0.0421083;0.1538494;0.1215885;0.2349727;0.0777814;8
12.5120;-0.9983773;-0.0098805;0.0605213;0.4439544;0.2372069;0.1763757;8
12.5630;-1.0417534;0.1447050;0.1290208;0.2313064;0.2090334;0.4126730;8
12.6130;-1.1097450;0.2081456;0.1812626;0.3835132;-0.0441377;1.1527860;8
12.6620;-1.3780052;0.4184044;0.0330506;0.9723043;-0.1409260;2.1891039;8
12.7130;-1.2423308;0.2075247;-0.0673679;1.0392961;-0.1426601;2.1287855;8
12.7620;-0.9675245;-0.0723065;-0.0530875;0.9270227;-0.2767219;1.5760533;8
12.8130;-0.7397462;0.0898911;-0.0489802;0.8945217;-0.0907194;1.1353697;8
12.8630;-0.6894459;0.0546892;-0.0261591;0.0694035;-0.1317027;0.5969356;8
12.9120;-0.7014518;0.1295550;-0.0536375;0.2426909;-0.1241697;0.0003414;8
12.9630;-0.8747786;0.5007983;-0.0763763;0.0282707;-0.3237634;-0.1270631;8
13.0120;-0.8496886;0.5147797;-0.0041402;-0.0166051;-0.3732250;-0.7184922;8
13.0630;-0.9230425;0.2753957;-0.1022980;-0.8162103;0.1039607;-1.0729973;8
13.1130;-1.0337901;0.4534270;0.1339350;-0.2493411;0.0796154;-0.5020674;8
13.1620;-0.9411732;0.2533166;-0.0281581;-0.1463656;0.0557055;-0.4692903;8
13.2130;-1.3502695;0.3542019;-0.0598113;-0.2685136;0.0725744;-0.2734882;8
13.2620;-0.9575813;0.2627113;0.1427310;0.1392432;-0.1757166;-0.1149280;8
13.3130;-0.9239226;0.1440774;0.1048035;-0.1957219;-0.2685073;-0.4661392;8
13.3630;-0.9957329;-0.0246299;0.0179862;0.0815052;-0.1586999;-0.6298455;8
13.4120;-0.9838144;0.0342856;-0.0262151;0.1190960;0.1017514;-0.4875253;8
13.4630;-0.9908694;0.0054252;0.2578626;-0.2536369;-0.0477728;-0.5831048;8
13.5120;-0.9607292;-0.0613570;0.2253206;-0.5190381;-0.0356876;-0.7439112;8
13.5630;-0.9792444;-0.0398028;0.1313758;-0.3751811;0.1418026;-0.8165339;8
13.6130;-0.9717351;-0.0873758;0.1620122;-0.2497143;0.1004923;-0.8592830;8
13.6620;-0.9645378;-0.0598546;0.1552797;-0.1887454;0.1786162;-0.8833304;8
13.7130;-0.9479784;-0.0652940;0.0953028;-0.3986543;0.2126725;-0.9552134;8
13.7620;-1.0125651;-0.0755420;0.0807981;-0.4705371;0.3340025;-0.8421899;8
13.8130;-1.0312876;-0.0522883;0.1675179;-0.7389921;0.3773975;-0.4994941;8
13.8630;-1.0253286;-0.0489699;0.1570776;-0.5339880;0.1019892;-0.2975441;8
13.9120;-0.9979707;-0.1143241;0.1746393;-0.7616196;0.1222794;-0.2191737;8
13.9630;-1.0914326;-0.1736601;0.2387139;-0.2364551;0.1384806;-0.0468664;8
14.0120;-1.1250599;-0.0894744;0.1740705;0.3952939;0.0476697;0.2135200;8
14.0630;-1.0591879;-0.0164571;0.0774691;0.4153767;0.1053653;0.4326046;8
14.1130;-1.0446220;0.0676660;-0.0411850;0.0878765;0.1594272;0.8400864;8
14.1620;-1.0390931;0.0864797;-0.0660835;-0.0831687;0.3264396;1.6983022;8
14.2130;-1.1644554;-0.0669224;0.0142811;0.1270995;0.0761643;2.0376554;8
14.2620;-1.1400406;-0.1601716;-0.1103762;0.3893121;0.0331436;1.9308019;8
14.3130;-1.0392035;-0.0236516;-0.0380726;0.3879818;-0.0883963;1.4688861;8
14.3630;-0.8958644;-0.0362009;-0.0498945;0.4159724;-0.1152001;1.0986590;8
14.4120;-0.8505876;-0.0080482;-0.0466473;0.5305138;-0.0927052;0.8027765;8
14.4630;-0.8342858;0.0577836;-0.0235542;0.3282021;-0.2095627;0.3969380;8
14.5120;-0.7896282;0.1383057;-0.0480945;0.3344167;-0.2233335;-0.0727225;8
14.5630;-0.9220471;0.3479140;0.0158473;-0.0221700;-0.1903185;-0.3557781;8
14.6130;-0.9894334;0.4649403;0.0260773;-0.0796358;-0.1876276;-0.3714172;8
14.6620;-0.9773320;0.3989429;-0.0110923;0.1406643;-0.0097693;-0.3119021;8
14.7130;-0.9380153;0.3520843;0.0339900;0.3379651;-0.0064844;-0.1535381;8
14.7620;-0.9350436;0.3009576;-0.0242499;-0.2228365;-0.1049802;-0.4162200;8
14.8130;-1.1843668;0.1370381;-0.0283259;-0.2123358;-0.0619696;-0.5318145;8
14.8630;-1.0676310;0.3235698;0.1245434;0.4035159;-0.0988614;-0.2236874;8
14.9120;-0.9015483;0.0891833;0.0612280;0.4316093;-0.3514840;-0.4213905;8
14.9630;-0.9829190;0.0056280;-0.0350097;-0.5478913;-0.0879930;-0.7462611;8
15.0120;-0.9738477;-0.0376746;0.1679999;-0.0451067;0.0312483;-0.8629929;8
15.0630;-0.9651495;0.0260786;0.0953013;0.0787383;0.0134693;-0.7679339;8
15.1130;-1.0000875;0.0601787;0.1716565;-0.2706566;-0.0002835;-0.7109724;8
15.1620;-0.9864205;0.0146796;0.1376482;-0.4371688;0.0150326;-0.5386401;8
15.2130;-0.9715590;-0.1029696;0.1267345;-0.4640278;-0.0129006;-0.5234323;8
15.2620;-0.9688356;-0.0883135;0.1568922;-0.3480391;0.0825236;-0.4871175;8
15.3130;-0.9717840;-0.0805546;0.1901280;-0.2289630;0.0761806;-0.5156287;8
15.3630;-0.9572845;-0.1002809;0.1966969;-0.1824289;0.1266331;-0.5832158;8
15.4120;-0.9890075;-0.0379846;0.1526215;-0.2366922;0.2203381;-0.5347695;8
15.4630;-0.9639627;-0.0864626;0.1884912;-0.5663317;0.1809708;-0.4182170;8
15.5120;-0.9743984;-0.1367868;0.1097956;-0.4171429;0.1804799;-0.2715352;8
15.5630;-0.9838462;-0.1574277;0.1298707;-0.4550415;0.0701645;-0.1428681;8
15.6130;-1.0089387;-0.1340321;0.0797550;-0.6450173;0.0673603;-0.1136121;8
15.6620;-1.1832426;-0.1050472;0.1969358;-0.5515666;0.1180002;-0.0265007;8
15.7130;-1.1474780;0.0066680;0.2521203;-0.0272477;0.1048191;0.3436028;8
15.7620;-1.0942400;0.0792573;0.0319950;0.6512021;0.0727994;1.0460971;8
15.8130;-1.0493570;0.1550455;-0.1670885;0.3404068;0.3337778;1.8210607;8
15.8630;-1.1276625;-0.0506673;-0.0012580;-0.6143350;0.0703007;1.8889473;8
15.9120;-1.1616197;-0.2482956;0.2448199;0.0326181;-0.1966495;1.7938789;8
15.9630;-1.0655203;-0.0722641;0.0603239;1.2751262;-0.2928025;1.5067706;8
16.0120;-0.9733014;0.0705598;-0.1142234;1.0478231;-0.2200404;1.3051568;8
16.0620;-0.8795487;0.0336260;-0.0183610;0.4775144;-0.2614176;0.9404352;8
16.1130;-0.7763562;0.0096394;-0.0380678;0.3633991;-0.1322950;0.4814461;8
16.1630;-0.6896571;0.0667288;-0.0559285;-0.0208858;-0.1206894;-0.1534173;8
16.2120;-0.8080875;0.2245460;0.1039799;0.3783149;-0.1171138;-0.7888820;8
16.2620;-1.0554791;0.6387988;0.0473963;0.1047158;-0.0854878;-0.5211047;8
16.3120;-1.0602911;0.6263599;0.0834328;-0.0771707;0.1438988;-0.2210332;8
16.3630;-0.8915784;0.3040914;0.0352029;0.2417138;-0.0590018;-0.1153804;8
16.4130;-1.1519514;0.0323495;-0.0690873;-0.3618955;0.1142056;-0.6074045;8
16.4620;-1.1501391;0.1713829;0.1043745;0.4607062;0.0582079;-0.4819077;8
16.5120;-0.9355491;0.1808777;0.1073052;0.3933833;-0.2264176;-0.3903613;8
16.5620;-0.9024325;-0.1239678;0.0005721;-0.8535794;-0.2129844;-1.0402448;8
16.6130;-1.0067145;0.0971178;0.0467668;0.2611673;0.0416332;-0.4074852;8
16.6630;-0.9725780;-0.0006825;0.2265893;-0.2017352;-0.0013257;-0.6229950;8
16.7120;-0.9499054;-0.0697832;0.1809569;-0.0963989;-0.0073498;-0.7114482;8
16.7620;-0.9725769;-0.0598401;0.1034924;-0.2719066;0.0865716;-0.7561379;8
16.8120;-1.0003931;-0.0693144;0.1170754;-0.4290410;0.1264456;-0.6382466;8
16.8630;-0.9868733;-0.1016578;0.2259838;-0.0568342;0.0375424;-0.4539882;8
16.9130;-0.9470299;-0.0955125;0.1361825;-0.1814115;0.0894522;-0.5573554;8
16.9620;-0.9929196;-0.0765444;0.0785500;-0.4906456;0.1494063;-0.5648711;8
17.0120;-0.9774543;-0.0636060;0.1846743;-0.5214957;0.1715545;-0.4442806;8
17.0620;-0.9632263;-0.0682369;0.1552182;-0.6919625;0.2379639;-0.2518112;8
17.1130;-0.9900690;-0.1265299;0.1488547;-0.4607226;0.1636913;-0.2345506;8
17.1630;-0.9747732;-0.1560569;0.1581817;-0.4374913;0.1470434;-0.2318031;8
17.2120;-1.1286723;-0.1744343;0.1635254;-0.2056025;0.1135715;-0.2073428;8
17.2620;-1.1867485;0.0055304;0.1281382;0.0957068;0.0674191;0.1751802;8
17.3120;-1.1169201;0.0990529;0.1370397;0.2651078;0.0371688;0.7864375;8
17.3630;-1.0491930;0.1295865;-0.0023642;0.4241622;0.2574076;1.4546391;8
17.4130;-1.0445359;-0.0355056;-0.0410553;0.2079944;0.1982737;1.9468719;8
17.4620;-1.1401139;-0.1513483;0.0410320;0.3579657;0.0379656;1.9832269;8
17.5120;-1.1232391;-0.1548236;0.0516469;0.5219850;-0.1461362;1.4759576;8
17.5620;-0.9481047;0.0457980;-0.0503327;0.8194079;-0.1097511;1.2290598;8
17.6130;-0.8867335;0.0345610;-0.0241192;0.5751307;-0.1459891;0.9548826;8
17.6630;-0.8069061;0.0272508;-0.0951114;0.3366436;-0.0874193;0.4886574;8
17.7120;-0.8036700;0.0991913;-0.0789879;-0.2140366;-0.0100256;0.0724696;8
17.7620;-0.8227643;0.2314576;0.0103508;-0.3444151;0.0256900;-0.3375810;8
17.8120;-0.9470288;0.4564690;0.1274657;0.1520133;-0.0118287;-0.4496696;8
17.8630;-0.9625100;0.4804330;0.0134995;0.2588353;0.1143716;-0.6095183;8
17.9130;-1.0364475;0.4367229;0.0811659;-0.6697751;0.0972827;-0.4066807;8
17.9620;-0.9889833;0.1455510;0.0396330;0.5862353;-0.1121214;-0.2584510;8
18.0120;-1.1856971;-0.0474635;0.0513591;0.3813616;-0.0246430;-0.7204846;8
18.0620;-1.0696996;0.3241200;-0.0147517;0.6843821;-0.0996965;-0.5049248;8
18.1130;-0.8231609;-0.2280299;-0.1423683;-0.6953880;-0.0390010;-0.8139977;8
18.1630;-1.0119203;0.0736388;0.1164608;-0.3078663;0.1081732;-0.7308148;8
18.2120;-0.9550711;-0.1200671;0.2047651;-0.2006599;0.0535762;-0.7429521;8
18.2620;-0.9960627;-0.0565353;0.1927372;-0.3169089;0.0985985;-0.7752744;8
18.3120;-1.0296207;0.0187506;0.0545183;-0.1830058;0.0015279;-0.5900881;8
18.3630;-0.9980256;-0.0117983;0.0680166;-0.4239188;-0.0300346;-0.3699273;8
18.4130;-0.9564741;-0.1328294;0.1324337;-0.4994124;-0.0016921;-0.3905670;8
18.4620;-0.9657261;-0.1441518;0.1407400;-0.3226977;0.0657579;-0.4109551;8
18.5120;-0.9707953;-0.1636132;0.1271893;-0.2181280;0.1183643;-0.4521027;8
18.5620;-0.9843032;-0.0887472;0.1310918;-0.0673133;0.0922813;-0.4104047;8
18.6130;-0.9724720;-0.1189068;0.1402494;-0.3453321;0.0819532;-0.3715901;8
18.6630;-0.9813521;-0.1644587;0.1243888;-0.4240949;0.1016532;-0.3472974;8
18.7120;-1.0289302;-0.1628080;0.0937394;-0.3780344;0.1391259;-0.2636237;8
18.7620;-1.1295771;-0.1531342;0.1520518;-0.2455772;0.1650890;-0.2053547;8
18.8120;-1.1527739;-0.0455678;0.1541804;-0.0626455;0.1139033;0.0971085;8
18.8630;-1.0451064;0.0857455;0.1160855;0.2142429;-0.0117572;0.6586635;8
18.9130;-0.9978981;0.1249770;-0.0037119;0.4211221;0.0583653;1.4613671;8
18.9620;-1.0651021;-0.0599064;-0.0195890;-0.0794408;0.0902312;1.9908070;8
19.0120;-1.1657415;-0.2208725;0.1110620;0.1487073;-0.2226703;1.7379901;8
19.0620;-1.0651525;-0.1673097;0.0477716;1.0116141;-0.1915073;1.5463794;8
19.1130;-0.9888075;0.0524450;-0.1049818;0.8236395;-0.1069142;1.2089145;8
19.1630;-0.9068262;0.0197126;-0.0128029;0.5463869;-0.0944529;0.9393102;8
19.2120;-0.8701023;0.0316942;-0.0511172;0.6422596;-0.0211635;0.6199539;8
19.2620;-0.8144244;0.1370831;-0.0695988;-0.0247293;-0.0055254;0.2043038;8
19.3120;-0.7976438;0.1793113;-0.0240745;-0.4211960;0.0711068;-0.3742273;8
19.3630;-0.9330726;0.3262160;0.0575961;-0.2520290;0.0838453;-0.3956713;8
19.4130;-1.0320278;0.4071086;0.1204707;0.5195923;0.0231942;-0.1991735;8
19.4620;-1.0074803;0.4791250;0.0926785;-0.0559338;0.0097956;-0.1763976;8
19.5120;-0.9175945;0.2760740;0.0181773;0.0364364;-0.0966588;-0.2389660;8
19.5620;-1.2063942;0.0261599;-0.0511739;-0.0982090;-0.0272816;-0.6183633;8
19.6130;-1.0774444;0.1733391;0.0098766;-0.0545447;-0.0219960;-0.5601031;8
19.6630;-0.9285884;0.0663994;-0.0072641;-0.0050415;-0.0783149;-0.4617767;8
19.7120;-0.9044994;-0.2250642;0.0322471;-0.8861150;0.0694350;-0.9302179;8
19.7620;-0.9707536;0.0014275;0.0988825;-0.2861724;0.1019016;-0.6917010;8
19.8120;-0.9661672;-0.0677392;0.2680693;-0.2367558;0.1873192;-0.7930886;8
19.8630;-1.0284407;-0.0455315;0.1770586;-0.1636563;0.0299758;-0.6968881;8
19.9130;-0.9852930;0.0353950;0.1084980;-0.1834082;0.0104028;-0.4140752;8
19.9620;-1.0470867;-0.0771520;0.1058773;-0.2997389;-0.0299520;-0.2813191;8
20.0120;-0.9341369;-0.0548603;0.0756739;-0.1640799;0.0532260;-0.2963296;8
20.0620;-0.9652747;-0.1123640;0.1302496;-0.2345392;0.0769161;-0.4523353;8
20.1130;-0.9958429;-0.0334266;0.1198283;-0.1097122;0.1105288;-0.4101835;8
20.1630;-0.9803431;-0.0128974;0.1448876;-0.2044648;0.0568413;-0.3161745;8
20.2120;-0.9565318;-0.0982706;0.1722663;-0.4297235;0.0416197;-0.3086156;8
20.2620;-0.9527611;-0.1206479;0.1377041;-0.4458527;0.0485200;-0.2955088;8
20.3120;-1.0516156;-0.1158822;0.2036867;-0.2373050;0.0127982;-0.1998114;8
20.3630;-1.1992284;-0.1481606;0.1590087;-0.1391461;0.0926889;-0.0541281;8
20.4130;-1.1720493;0.0282715;0.1500016;0.4697235;0.1135894;0.3698225;8
20.4620;-1.0208726;0.1265275;0.0141019;0.3412001;0.1596146;0.9514360;8
20.5120;-1.0056977;0.0866784;-0.0228147;0.1722001;0.2826163;1.6568087;8
20.5620;-1.1616607;-0.0872109;0.0306242;-0.1714800;0.0024723;1.8508252;8
20.6130;-1.1453923;-0.2174501;0.1344158;0.3214080;-0.2394295;1.8157760;8
20.6630;-1.0462065;-0.0351269;0.0021200;0.9240516;-0.2047513;1.4816863;8
20.7120;-0.9267095;0.0165035;-0.0486734;0.6670341;-0.0740027;1.2005372;8
20.7620;-0.8809657;-0.0326039;0.0024916;0.6717421;-0.0194924;0.8524561;8
20.8120;-0.7386346;-0.0313562;-0.1239673;0.4315599;0.0561053;0.2903691;8
20.8630;-0.7480686;0.1249991;-0.0361334;-0.1737417;0.1665202;-0.3570541;8
20.9130;-0.9144095;0.4272533;0.1106595;-0.5108405;-0.0045767;-0.7017305;8
20.9620;-1.0774949;0.4782250;0.1213317;0.3647775;0.0244090;-0.5764539;8
21.0120;-1.0138855;0.4799480;0.0900445;0.1882914;0.1204521;-0.1363399;8
21.0620;-0.9469416;0.1984443;-0.0435407;-0.1205226;-0.0715176;-0.3262338;8
21.1130;-1.1696532;-0.0892372;-0.0590406;-0.4749092;-0.0100835;-0.5265789;8
21.1630;-1.0877093;0.2810644;0.1006132;0.4012279;0.0722756;-0.1675785;8
21.2120;-0.8797370;0.0674413;-0.0158987;-0.8782612;-0.1944226;-0.8140206;8
21.2620;-1.0086892;0.0174004;-0.0167440;-0.2989100;0.0469053;-0.6674770;8
21.3120;-0.9544644;0.0744864;0.1220700;-0.2899024;0.1935331;-0.5520834;8
21.3630;-0.9813693;-0.0892162;0.2188419;-0.4392236;0.0546330;-0.7017940;8
21.4130;-0.9679254;-0.0351466;0.1725815;-0.3628705;0.0658031;-0.6498453;8
21.4620;-0.9924806;-0.0264472;0.1454984;-0.0760353;0.1234959;-0.5031886;8
21.5120;-0.9874703;-0.0545189;0.1436803;-0.0341650;0.0691617;-0.4805515;8
21.5620;-0.9774615;-0.0769409;0.1129364;-0.0941509;0.1112886;-0.3963461;8
21.6130;-0.9690531;-0.0819682;0.1051036;-0.0692047;0.1245643;-0.4670323;8
21.6630;-0.9599561;-0.1179508;0.0842694;-0.0940497;0.2004939;-0.5058549;8
21.7120;-0.9830013;-0.0967580;0.1083713;-0.0118824;0.2152049;-0.4687770;8
21.7620;-0.9718162;-0.0862302;0.1062523;-0.2755117;0.1723109;-0.4528019;8
21.8120;-0.9805700;-0.0995911;0.1795619;-0.3689277;0.1726142;-0.4675729;8
21.8630;-1.0847536;-0.1341510;0.2235917;-0.3135948;0.0798394;-0.2783064;8
21.9130;-1.2369633;-0.1133713;0.0613802;-0.1510923;0.0691988;0.0715781;8
21.9620;-1.1437390;0.0440423;0.0783459;0.2031135;0.0485586;0.5480467;8
22.0120;-1.0124055;0.0416786;0.0857113;0.1273377;-0.0090230;1.0429044;8
22.0620;-0.9913827;0.0024282;-0.0848891;0.4111336;0.1380552;1.6863811;8
22.1130;-1.0924210;-0.1284313;0.0395070;0.1854408;-0.0667434;1.7280934;8
22.1630;-1.0964264;-0.1997228;0.0715728;0.6426603;-0.1990703;1.5787693;8
22.2120;-0.9896635;-0.0002367;-0.0985086;0.7695204;-0.0939119;1.2443217;8
22.2620;-0.9269718;-0.0009011;-0.0110622;0.4941669;-0.0982722;1.0270400;8
22.3120;-0.9178741;0.0002437;-0.0527609;0.4360314;-0.0364065;0.7297856;8
22.3630;-0.8623878;0.1009028;-0.0623680;0.3629000;-0.0536779;0.4799583;8
22.4130;-0.8304629;0.2086201;-0.0092143;-0.0532653;-0.0194809;0.0326301;8
22.4620;-0.9059175;0.3231010;0.0464946;-0.0564812;0.0061194;-0.2250665;8
22.5120;-0.9477858;0.2710838;0.0138770;0.3020995;0.0521649;-0.2737532;8
22.5620;-0.9775033;0.3926420;0.0500227;-0.0009779;0.1669231;-0.2290426;8
22.6130;-0.9893617;0.3539565;0.0230265;0.0956690;0.0642873;-0.3868514;8
22.6630;-1.1941795;0.1339899;-0.0172530;0.1132256;-0.1027909;-0.6845803;8
22.7120;-0.9625604;0.2048201;0.0525153;-0.0205078;-0.1084512;-0.6918477;8
22.7620;-0.9618038;0.0942556;-0.0746004;-0.0769160;-0.0464580;-0.6353524;8
22.8120;-0.9500766;-0.0172259;0.0054732;-0.8312156;0.0706376;-0.7313985;8
22.8630;-1.0028911;0.0067689;0.1570646;-0.4254027;-0.0095329;-0.5322504;8
22.9130;-0.9679948;-0.0539718;0.3123898;-0.1317433;-0.0103602;-0.5404457;8
22.9620;-0.9826305;-0.0564715;0.2075139;0.0780030;-0.0467653;-0.5403442;8
23.0120;-0.9655529;-0.0391536;0.0060374;0.0693803;0.0468611;-0.5162110;8
23.0620;-0.9795811;-0.0978209;0.0328581;-0.2521176;0.0379841;-0.5384344;8
23.1130;-0.9436026;-0.1774487;0.0764430;-0.6506095;0.1736612;-0.6479795;8
23.1630;-0.9731597;-0.1462513;0.1583124;-0.4322447;0.3010994;-0.6698130;8
23.2120;-1.0136696;-0.0624597;0.1274486;-0.2781976;0.2272251;-0.5949971;8
23.2620;-1.0027779;-0.0157693;0.0399411;-0.4515614;0.1140047;-0.4964988;8
23.3120;-0.9659334;-0.0694521;0.1418359;-0.7287907;0.0504531;-0.4010478;8
23.3630;-0.9858929;-0.1961355;0.3092166;-0.5140217;0.1344793;-0.4097713;8
23.4130;-1.1734494;-0.1823641;0.1184320;0.2152930;0.0722432;-0.0945456;8
23.4620;-1.1129374;0.0028987;0.0402946;0.3124256;0.0689354;0.2208141;8
23.5120;-1.0991923;-0.0249886;0.1419949;0.0230733;-0.0106773;0.7490356;8
23.5620;-1.0789051;0.0302605;-0.0067395;0.2320592;-0.0478371;1.3981976;8
23.6130;-1.0804508;-0.0406071;-0.0915476;0.0954014;0.0669275;1.9247503;8
23.6630;-1.1121988;-0.1658876;-0.0060112;0.2363505;-0.0267520;1.7666291;8
23.7120;-1.0786174;-0.1468159;-0.0623719;0.7317460;0.0035051;1.5249841;8
23.7620;-0.9792469;0.0382939;0.0527561;0.6171232;-0.0326805;1.2484605;8
23.8120;-0.9050080;0.0034918;-0.0131847;0.5582504;-0.1351515;1.0023988;8
23.8630;-0.8227622;0.0647555;-0.0832045;0.4675613;-0.1110629;0.7032917;8
23.9130;-0.8124767;0.1540225;-0.0224247;-0.0634924;-0.0825140;0.3084502;8
23.9620;-0.8262387;0.2278411;0.0522225;-0.2550838;-0.0538949;-0.0956166;8
24.0120;-0.9267222;0.3129297;0.0658223;0.2290540;-0.0865995;-0.3876625;8
24.0620;-0.9726046;0.4301678;0.0156065;0.1763212;0.0461535;-0.4001515;8
24.1130;-1.0438423;0.5337793;-0.0524602;-0.5245962;0.1371577;-0.6736103;8
24.1630;-0.9539879;0.3222111;-0.0413549;-0.5801878;-0.1699978;-0.2243846;8
24.2120;-1.1437488;-0.0684550;0.1021596;-0.1004501;0.1491581;-0.2732204;8
24.2620;-1.0090197;0.1985328;0.2788408;0.7725185;-0.0680061;-0.5161456;8
24.3120;-0.9393620;-0.1025614;-0.0899613;0.1579682;-0.2079063;-0.7761305;8
24.3630;-0.9407466;-0.0167289;-0.1062118;-0.6566844;0.0517791;-0.9110129;8
24.4130;-0.9601254;-0.0509517;0.1265018;-0.4944608;0.1815125;-0.7531778;8
24.4620;-1.0009755;-0.0285553;0.3049285;-0.2901988;0.1324043;-0.6854450;8
24.5120;-0.9958792;-0.0795539;0.2400271;0.1382940;0.1030089;-0.5589108;8
24.5620;-1.0085036;-0.0276101;0.0959132;0.2374520;0.0838907;-0.5643720;8
24.6130;-0.9887139;-0.0679203;-0.0185645;-0.0500365;0.0627130;-0.5029083;8
24.6630;-0.9632469;-0.1295932;0.0694977;-0.2633639;0.0756641;-0.3594066;8
24.7120;-0.9281113;-0.1902508;0.1383124;-0.3567502;0.1927853;-0.5391916;8
24.7620;-0.9979177;-0.1489611;0.1186899;-0.0483741;0.2228550;-0.6174781;8
24.8120;-1.0146244;-0.0193189;0.0667347;0.0332706;0.0834761;-0.4782080;8
24.8630;-0.9952529;-0.0761244;0.0714838;-0.6450560;0.0789524;-0.3675358;8
24.9130;-1.0082563;-0.1962280;0.1582650;-0.8613429;0.1061889;-0.2867430;8
24.9620;-1.0421050;-0.1632036;0.1778540;-0.5890808;0.1478114;-0.1429473;8
25.0120;-1.1453599;-0.1371436;0.1943570;-0.1778413;0.1568256;-0.0439386;8
25.0620;-1.0883419;0.0157500;0.1638224;0.3878321;0.1091035;0.3252225;8
25.1130;-1.0085783;0.1169873;0.0386533;0.5378654;0.0008626;1.0076801;8
25.1630;-1.0542807;0.1182317;-0.1610438;0.2707513;0.1724348;1.8726338;8
25.2120;-1.1745500;-0.1810524;-0.0206114;-0.8706872;-0.1073259;1.7575423;8
25.2620;-1.1621119;-0.2955510;0.1695879;0.6771086;-0.1388181;1.7174600;8
25.3120;-1.0397093;-0.0367998;-0.1276329;1.5288989;-0.0472339;1.4642767;8
25.3630;-0.9317129;0.0290431;-0.1025269;0.5645333;-0.0958475;1.1384820;8
25.4130;-0.8622030;-0.0589241;-0.0848235;0.0874828;-0.0961872;0.7937939;8
25.4620;-0.8791357;0.0167432;-0.0127244;0.1245697;-0.0344947;0.5919598;8
25.5120;-0.8480057;0.1335654;0.0586286;-0.0416708;-0.0873610;0.1537900;8
25.5620;-0.8581840;0.3005628;0.1016479;0.2482602;-0.1168258;-0.1854375;8
25.6130;-0.9144986;0.3155643;0.0252132;0.4267949;-0.1341984;-0.2811567;8
25.6630;-0.9736554;0.3709141;0.0156096;0.0812371;-0.0266316;-0.2608517;8
25.7120;-0.9891393;0.4446309;0.0197831;0.0759027;-0.0124996;-0.2776723;8
25.7620;-1.0102518;0.3181325;-0.0339723;-0.3201724;-0.2538074;-0.6089668;8
25.8120;-1.0857720;-0.1236733;-0.0191686;-0.6074278;-0.0911859;-0.4302481;8
25.8630;-1.0869887;0.2887324;0.0608626;0.0490458;0.2377722;-0.5783953;8
25.9130;-0.9161381;0.2072847;0.0570901;-0.0556588;-0.0102074;-0.4079293;8
25.9620;-0.9504986;-0.1324816;0.1039526;-0.9040466;-0.0278225;-0.7501345;8
26.0120;-1.0411420;0.2138657;0.0786396;-0.4042651;0.0456039;-0.4797990;8
26.0620;-0.9082516;-0.1528474;0.1094217;-0.2889239;0.2183757;-0.5395067;8
26.1130;-0.9975764;-0.0815073;0.2521284;-0.0211665;0.0605320;-0.6714790;8
26.1630;-0.9758633;-0.0419230;0.1398859;-0.1615976;0.0961105;-0.6497569;8
26.2120;-0.9924396;-0.0594359;0.0908461;-0.0525302;0.0929402;-0.5537504;8
26.2620;-0.9981470;-0.0424577;0.0812541;-0.0443965;0.0564719;-0.4572970;8
26.3120;-0.9698973;-0.0919302;0.1341255;-0.2661436;0.0790377;-0.4450518;8
26.3630;-0.9662296;-0.1223902;0.1065784;0.0672376;0.0978144;-0.4714878;8
26.4130;-0.9746350;-0.1167298;0.0960426;0.1056045;0.2139846;-0.4412812;8
26.4620;-0.9939213;-0.0691300;0.0833182;-0.1244066;0.1540692;-0.5499842;8
26.5120;-1.0009568;-0.1603504;0.1428835;-0.6615786;0.1537565;-0.3724800;8
26.5620;-0.9945482;-0.1799811;0.1087831;-0.7727470;0.1437399;-0.3260535;8
26.6130;-1.1375734;-0.1485979;0.2209564;-0.4001109;0.1692976;-0.2871882;8
26.6630;-1.1646974;0.0151745;0.2500472;0.3303668;0.0640716;0.1206848;8
26.7120;-1.0881179;0.0299470;0.0737815;0.4119753;-0.0033611;0.7224403;8
26.7620;-1.0223821;0.0781646;-0.1081523;0.4902956;0.1774988;1.3222862;8
26.8120;-1.0939156;-0.0446095;-0.0767983;0.1005615;0.2333518;1.9832931;8
26.8630;-1.1713058;-0.1485270;0.0670601;0.0345548;0.0268348;1.9770670;8
26.9130;-1.0846129;-0.1636029;0.1324765;0.7374179;-0.2038231;1.5802217;8
26.9620;-0.9423799;-0.0116756;-0.0489293;1.1189175;-0.0993954;1.3030743;8
27.0120;-0.8891262;0.0064517;-0.0247159;0.6422120;-0.1219125;1.0789641;8
27.0620;-0.8062081;-0.0313589;-0.0363872;0.5723443;-0.1540985;0.6098079;8
27.1130;-0.7738999;0.0280813;-0.1082777;0.0490866;-0.0945531;0.1050109;8
27.1630;-0.8323966;0.2235401;0.0347860;-0.3169596;-0.0295163;-0.4393158;8
27.2120;-0.9997996;0.4373961;0.0913371;0.2674349;-0.1359928;-0.5975919;8
27.2620;-1.0358395;0.4431162;-0.0209327;0.1669702;0.0519245;-0.3678739;8
27.3120;-0.9581090;0.4181890;0.0360968;-0.5181198;0.0794115;-0.2112965;8
27.3630;-0.9900664;0.1295505;0.0070423;-0.1062607;-0.0735383;-0.3517074;8
27.4130;-1.1772899;-0.0349968;0.0579747;-0.1923030;0.0705703;-0.4443253;8
27.4620;-1.0813250;0.3906481;0.1169665;0.5000043;-0.1053023;-0.3052182;8
27.5120;-0.8369195;-0.1566146;-0.0992291;-0.9840122;-0.1558101;-0.7240105;8
27.5620;-0.9974986;0.0316291;0.0320607;-0.4259677;0.1284043;-0.5439829;8
27.6130;-0.9780145;-0.0317619;0.1524040;-0.0609373;0.1198660;-0.4650995;8
27.6630;-0.9928791;-0.0785526;0.2424136;-0.4790768;0.0495139;-0.5965512;8
27.7120;-0.9543212;-0.1409419;0.1481686;-0.1349781;0.0212995;-0.6214326;8
27.7620;-0.9773140;-0.1193605;0.0400927;-0.1575310;0.1226484;-0.6508987;8
27.8120;-1.0060202;-0.0438496;0.0553928;-0.1079732;0.1226969;-0.5375603;8
27.8630;-0.9860276;-0.0483255;0.1464641;-0.3609711;0.1166132;-0.4744890;8
27.9130;-0.9732472;-0.1073209;0.1630520;-0.3741094;0.1157447;-0.5628977;8
27.9620;-0.9867385;-0.0321468;0.1088166;-0.0619843;0.1636422;-0.5438536;8
28.0120;-1.0057225;-0.0244141;0.1125686;-0.1096760;0.1326977;-0.5199333;8
28.0620;-0.9905992;-0.0529658;0.1279408;-0.4251215;0.0918763;-0.3773054;8
28.1130;-0.9554043;-0.1775778;0.1754680;-0.6717698;0.1311288;-0.2952843;8
28.1630;-1.1234902;-0.2359504;0.1973350;-0.1894604;0.1481568;-0.2288414;8
28.2120;-1.1343461;-0.1349238;0.0853122;0.1293538;0.2137468;-0.1419617;8
28.2620;-1.0892667;-0.0523129;0.0620483;0.2765754;0.1270772;0.2827023;8
28.3120;-0.9798225;0.0696250;0.0301618;0.0468408;0.0370999;0.7676862;8
28.3630;-1.0196338;0.0574626;-0.0331903;-0.0545898;0.0927023;1.4003255;8
28.4130;-1.1654995;-0.0713508;0.0410901;0.0376752;-0.1056349;1.8606201;8
28.4630;-1.1517234;-0.1947155;0.0368568;0.5712021;-0.2832944;1.8991291;8
28.5130;-1.0947884;-0.0794293;-0.1182453;0.9031156;-0.1951611;1.6219129;8
28.5620;-0.9713554;-0.0096489;-0.0178900;0.5011131;-0.0741571;1.4185401;8
28.6130;-0.8614016;-0.0462471;0.0241963;0.3980899;-0.0922154;0.9668159;8
28.6630;-0.7351221;-0.0228596;-0.0822218;0.4334545;-0.0546641;0.4953735;8
28.7130;-0.7348360;0.1043801;0.0028721;0.1320518;0.0380494;-0.1474934;8
28.7630;-0.9050164;0.4358509;0.0766426;-0.5158130;-0.1030515;-0.6250966;8
28.8120;-0.9924191;0.4631452;0.1085243;0.0575412;-0.0010163;-0.5054632;8
28.8630;-0.9999451;0.3611938;0.1318595;0.3647750;0.0402919;-0.1813524;8
28.9130;-1.2614692;0.1716245;0.0140268;-0.0426708;-0.0640742;-0.4821194;8
28.9630;-0.9690191;0.1193705;-0.0149985;0.4253651;-0.0705076;-0.5639685;8
29.0130;-0.8908991;0.1135537;-0.0427095;0.1940262;-0.0415484;-0.5513262;8
29.0620;-0.9972590;-0.2005605;-0.0094037;-1.1572755;0.0623895;-1.0195257;8
29.1130;-0.9519725;0.0314698;0.0884056;-0.1015877;0.1731656;-0.6860748;8
29.1630;-1.0262255;-0.0333030;0.2448525;-0.1961615;0.1556865;-0.7183101;8
29.2130;-0.9795689;-0.0410208;0.1864863;-0.5061295;0.0218752;-0.7068469;8
29.2630;-0.9917493;-0.0791614;0.1047186;-0.2303740;0.0701499;-0.5666276;8
29.3120;-0.9663259;-0.1196633;0.0944308;-0.1478415;0.0843842;-0.4334515;8
29.3630;-0.9721076;-0.1564530;0.1362570;-0.1664275;0.1162410;-0.4846428;8
29.4130;-0.9758420;-0.0990177;0.1427330;-0.0335302;0.1117880;-0.3998444;8
29.4630;-0.9539843;-0.1352206;0.0889804;-0.1685669;0.1451563;-0.5166209;8
29.5130;-1.0018186;-0.1032768;0.0832976;-0.0692883;0.1449217;-0.4795599;8
29.5620;-1.0103405;-0.0995016;0.0686986;-0.3704902;0.1401260;-0.3775145;8
29.6130;-0.9985472;-0.1374543;0.1577517;-0.6990674;0.1490961;-0.3298937;8
29.6630;-1.2035337;-0.1584502;0.2182065;-0.4066503;0.2531961;-0.2228462;8
29.7130;-1.1602508;0.0580769;0.0874215;-0.0154144;0.0157352;0.1618933;8
29.7630;-1.0714144;0.2058425;0.1434737;0.3839777;-0.1468512;0.9935341;8
29.8120;-1.1112119;0.1150529;-0.0271801;0.1860995;0.0299657;2.0053027;8
29.8630;-1.0888465;-0.3343924;-0.0378658;-0.0222800;-0.2457548;2.1781973;8
29.9130;-1.1189796;-0.2364441;0.0831102;0.6989218;-0.1805518;1.5363327;8
29.9630;-0.9561404;-0.0191701;-0.0384077;1.2173921;0.0550764;1.2753936;8
30.0130;-0.8725970;-0.0552182;-0.0748504;0.6077405;-0.0258669;0.8956435;8
30.0620;-0.8395057;-0.0177134;-0.1527464;0.5467479;0.0075323;0.5454322;8
30.1130;-0.8292378;0.0938270;-0.0238446;-0.0316133;0.0421736;0.1925597;8
30.1630;-0.8965929;0.3511232;0.1098275;-0.2762349;-0.0556258;-0.2077892;8
30.2130;-0.9632796;0.2938350;0.0383265;-0.0545201;-0.0634139;-0.5341723;8
30.2630;-0.9945489;0.2721811;0.0587294;-0.1599942;0.0602799;-0.2904262;8
30.3120;-0.9433516;0.3758257;0.0931287;0.2006589;-0.0201821;-0.0512374;8
30.3630;-0.9534233;0.1652002;0.0107839;-0.1503932;-0.1273761;-0.4235696;8
30.4130;-1.2515704;-0.0146068;0.0138714;0.0137768;0.0562757;-0.5083039;8
30.4630;-0.9803964;0.2604887;0.1217913;0.7689389;-0.0620909;-0.3264037;8
30.5130;-0.8598412;-0.2755689;-0.0763906;-0.8339419;-0.0267735;-0.9299666;8
30.5620;-0.9931980;0.0018747;0.0290277;-0.3932552;0.1131442;-0.7873845;8
30.6130;-0.9883875;-0.0337274;0.1611931;0.0571475;0.1827987;-0.5950699;8
30.6630;-1.0117596;-0.0594128;0.2398106;-0.1876574;0.1170029;-0.6617895;8
30.7130;-0.9876084;-0.0482800;0.0876039;-0.3183508;0.0661844;-0.5742620;8
30.7630;-0.9953367;-0.0601920;0.0877925;-0.2593906;0.0392782;-0.3749435;8
30.8120;-0.9562871;-0.1459926;0.1419371;-0.3620835;0.0544939;-0.4039544;8
30.8630;-0.9551415;-0.1889215;0.1188595;-0.2968417;0.1414186;-0.4806206;8
30.9130;-0.9915868;-0.1292893;0.0921625;-0.0638120;0.1584921;-0.4256647;8
30.9630;-0.9799734;-0.0718463;0.0916795;-0.1206918;0.1537932;-0.4193768;8
31.0130;-0.9834094;-0.0579666;0.0716938;-0.3943170;0.1633603;-0.5052727;8
31.0620;-0.9797876;-0.1236175;0.1857487;-0.4583972;0.1515396;-0.3843780;8
31.1130;-1.0689290;-0.2049446;0.2180307;-0.1655580;0.1359185;-0.2997440;8
31.1630;-1.2271493;-0.0732404;0.1335975;0.3163453;0.0250986;0.0072068;8
31.2130;-1.1763706;-0.0236487;0.0914125;0.4451171;-0.0429308;0.4777239;8
31.2630;-1.0370739;-0.0186057;0.0715878;0.3086257;-0.0634333;0.9157635;8
31.3120;-0.9477954;-0.0065856;-0.1465548;0.4518036;0.2078996;1.5467085;8
31.3630;-1.0692600;-0.0985810;-0.0992458;0.1823830;0.2339113;1.8716540;8
31.4130;-1.1114544;-0.1706089;0.0480250;0.1997678;0.1229879;1.7243275;8
31.4630;-0.9977049;-0.0396640;-0.0336814;0.3516768;0.0950547;1.3968908;8
31.5130;-0.9200540;0.0081584;0.0149179;0.2389096;-0.0329394;1.1427828;8
31.5620;-0.8688677;-0.0097227;0.0216145;0.1435443;-0.1118971;0.7740501;8
31.6130;-0.8287580;0.0541852;0.0288808;0.2702786;-0.2044068;0.3634856;8
31.6630;-0.8019402;0.1219841;-0.0149622;0.1141515;-0.2019628;-0.1487489;8
31.7130;-0.9066453;0.2430108;-0.0184853;-0.1239427;-0.0334144;-0.4774202;8
31.7630;-0.9919824;0.3759051;0.0255883;0.2166727;0.0608520;-0.3943498;8
31.8120;-1.0452530;0.5073116;0.0410939;0.1355497;0.0722490;-0.4780945;8
31.8630;-1.1079177;0.4407684;0.0236871;-0.4723713;-0.1634766;-0.3555940;8
31.9130;-1.0910928;0.0792974;0.0085614;0.0585232;-0.2368638;0.1639778;8
31.9630;-0.9211199;0.0575946;0.0371594;-0.0638780;0.0442787;-0.3892160;8
32.0130;-1.0183397;0.0749370;0.1355267;0.6699596;-0.1019718;-0.3886632;8
32.0630;-0.8886666;-0.2290161;-0.1357629;-0.6905469;0.0608391;-0.8527231;8
32.1120;-1.0074633;0.0029289;0.0488765;-0.6504183;0.1319104;-0.7669971;8
32.1630;-0.9863444;-0.0697990;0.2367278;-0.1608490;0.1472976;-0.6289041;8
32.2120;-1.0058999;0.0411047;0.3418899;-0.3231095;0.0380460;-0.6947181;8
32.2630;-0.9878936;-0.0197455;0.1078905;-0.2868846;0.0428044;-0.5993002;8
32.3130;-0.9820209;-0.0606570;0.0066311;0.0554949;0.0668024;-0.3941368;8
32.3620;-0.9570723;-0.1202003;0.1033534;-0.1829912;0.0891714;-0.4772092;8
32.4130;-0.9620561;-0.2077071;0.1288550;-0.4095446;0.1679217;-0.6713054;8
32.4620;-0.9882695;-0.0899648;0.1632845;0.0385424;0.2060809;-0.5586130;8
32.5130;-1.0076654;-0.0304440;0.1338220;-0.0760462;0.1604173;-0.5073280;8
32.5630;-0.9964362;-0.1037481;0.1028756;-0.3924705;0.1495623;-0.4254241;8
32.6120;-1.0031528;-0.1834884;0.1085210;-0.5987303;0.1484241;-0.2839187;8
32.6630;-1.1125776;-0.2053623;0.1800073;-0.3353931;0.1617679;-0.2557170;8
32.7120;-1.1552347;-0.1040200;0.1558410;0.2065431;0.0998454;-0.0572045;8
32.7630;-1.0761774;0.0231210;0.0999024;0.6013607;-0.0469221;0.5555690;8
32.8130;-1.0266323;0.1105002;-0.0030666;0.4993606;0.0328560;1.1848565;8
32.8620;-1.0736724;-0.0109093;-0.1472893;0.1591143;0.3039381;2.0381292;8
32.9130;-1.1629620;-0.1404209;0.1181391;0.0915428;0.0212536;2.0061845;8
32.9620;-1.0894671;-0.1475704;0.1692900;0.7626754;-0.0923241;1.8005214;8
33.0130;-1.0077705;-0.0236091;-0.0713650;0.8536490;-0.1693975;1.4657708;8
33.0630;-0.8784253;0.0146451;-0.0349407;0.6326176;-0.1338942;1.1133295;8
33.1120;-0.7958460;0.0176223;-0.0521778;0.3181158;-0.0944777;0.6274958;8
33.1630;-0.7531395;0.0736643;-0.1014350;-0.0530984;-0.0328962;0.0186764;8
33.2120;-0.7934227;0.1889514;-0.0302883;-0.3199794;0.0605628;-0.4354528;8
33.2630;-0.9458093;0.4436234;0.1037686;-0.2839912;0.0454914;-0.5711955;8
33.3130;-1.0249901;0.5471278;0.0661065;-0.1398491;0.0758836;-0.6809824;8
33.3620;-1.0572411;0.3256358;0.1222992;-0.5123062;0.0557206;-0.1456129;8
33.4130;-1.0693824;0.1874121;0.0809730;0.4648293;-0.1578824;-0.1271893;8
33.4620;-1.1667101;-0.0082760;0.0526196;0.4411869;-0.1082434;-0.5933713;8
33.5130;-0.9216339;0.1919628;0.0201772;0.8281855;-0.0785446;-0.4652196;8
33.5630;-0.8881098;-0.2269061;-0.1628079;-0.8529903;-0.0261603;-0.9372823;8
33.6120;-1.0263495;0.1453818;0.0703637;-0.4937414;0.0969609;-0.7825605;8
33.6630;-0.9611204;-0.1144313;0.2199155;-0.2408288;0.1360313;-0.6762182;8
33.7120;-1.0069820;-0.0864988;0.3432403;-0.3549945;-0.0207446;-0.6087490;8
33.7630;-0.9443226;-0.2039101;0.0567886;-0.3166510;0.0167186;-0.6008282;8
33.8130;-0.9752603;-0.1208966;-0.0165567;-0.0040347;0.0922342;-0.4997337;8
33.8620;-0.9781951;-0.1287008;0.0992202;-0.2994334;0.1192963;-0.5092701;8
33.9130;-0.9724997;-0.1007505;0.1687977;-0.3126245;0.1476760;-0.4808057;8
33.9620;-0.9818369;-0.1170784;0.1426519;-0.2074984;0.1380600;-0.5104139;8
34.0130;-0.9967344;-0.0793980;0.0376328;-0.2546210;0.1131420;-0.3799846;8
34.0630;-0.9817501;-0.1408881;0.0702190;-0.5837972;0.0999272;-0.3415124;8
34.1120;-1.0008399;-0.1774029;0.1998564;-0.5310543;0.1204934;-0.2968595;8
34.1630;-1.1043664;-0.1250655;0.2358230;-0.1460806;0.1459460;-0.2380045;8
34.2120;-1.1603420;-0.0662078;0.1639626;0.1493247;0.0733437;0.0902889;8
34.2630;-1.0989854;0.0522564;0.0892593;0.3893734;-0.0154823;0.5181945;8
34.3130;-1.0731081;0.1091350;0.0208265;0.2854846;-0.0666796;1.2716543;8
34.3620;-1.0382213;-0.0293362;-0.1223885;0.0263315;0.2579461;2.1005516;8
34.4130;-1.1449548;-0.1944552;0.0116313;-0.1279734;0.0078709;1.7743503;8
34.4620;-1.0902937;-0.1823734;0.0904941;0.6261272;-0.0275319;1.5623920;8
34.5130;-0.9327459;-0.0223390;-0.0834552;0.6831152;0.0300054;1.1957505;8
34.5630;-0.8827366;0.0041300;-0.0643153;0.4179826;-0.0590522;0.9399243;8
34.6120;-0.8509572;0.0737214;-0.0225946;0.1890520;-0.0362131;0.5840699;8
34.6630;-0.8371600;0.0858541;0.0130136;-0.0833070;-0.1261851;0.1789774;8
34.7120;-0.8489799;0.1511224;0.0010826;-0.1283912;-0.0574219;-0.1729439;8
34.7630;-0.9367421;0.3817371;0.0633806;-0.1412048;-0.0472822;-0.2600664;8
34.8130;-1.0074815;0.4646113;0.0968764;0.1422127;-0.0016277;-0.2903056;8
34.8620;-1.0069392;0.4960883;0.0527687;-0.1788954;-0.0615506;-0.3545863;8
34.9130;-0.9328966;0.2902966;0.0134334;-0.0876161;-0.2175016;-0.1099026;8
34.9620;-1.2359422;0.1129111;0.0338149;-0.0508955;-0.0615177;-0.4618797;8
35.0130;-0.9858603;0.1994516;0.2590838;1.1474457;-0.2582157;-0.1917160;8
35.0630;-0.8310717;-0.1996067;-0.1065555;0.0420915;-0.2617492;-0.6564163;8
35.1120;-1.0405384;0.0299721;-0.0813823;-0.5599591;0.0236980;-0.7316034;8
35.1630;-0.9534542;-0.0766465;0.2218445;-0.5281316;0.1730125;-0.7763392;8
35.2120;-0.9686929;-0.0204567;0.3320609;-0.1364846;0.1046469;-0.7441840;8
35.2630;-0.9585221;0.0078948;0.1753348;-0.1211900;0.1183873;-0.8262191;8
35.3130;-1.0133615;-0.0227410;0.1275288;-0.3009992;0.1078705;-0.6610618;8
35.3620;-0.9595810;-0.0603893;0.1969652;-0.0576352;-0.0091987;-0.4975958;8
35.4130;-1.0000267;-0.1036498;0.1349717;-0.1244535;0.0830364;-0.3765580;8
35.4620;-0.9399866;-0.0967656;0.0339128;-0.2185326;0.1259770;-0.5710722;8
35.5130;-0.9681442;-0.1050811;0.1371281;-0.6215431;0.2565539;-0.5500410;8
35.5630;-0.9862331;-0.1790735;0.1376288;-0.6509269;0.2824791;-0.4455619;8
35.6120;-1.0026941;-0.1552056;0.1392671;-0.4350615;0.1906022;-0.4015120;8
35.6630;-1.0131343;-0.1390480;0.1355476;-0.5201968;0.1934443;-0.3496148;8
35.7120;-1.0964790;-0.1393171;0.2078633;-0.4010274;0.1849794;-0.3058847;8
35.7630;-1.1271930;-0.0889252;0.2058690;-0.0577915;0.1423247;-0.0602528;8
35.8130;-1.0973579;0.0347749;0.1509734;0.3445643;-0.0080471;0.4456981;8
35.8620;-1.0331378;0.0605532;-0.0049556;0.2106356;-0.0143671;1.1209962;8
35.9130;-1.0366283;0.0322278;-0.0804328;0.1775791;0.1805734;1.8447790;8
35.9620;-1.1606091;-0.1332910;0.0449240;0.0686941;-0.0636593;1.9251858;8
36.0130;-1.1338926;-0.2001432;0.1168868;0.5768783;-0.1940543;1.8086554;8
36.0630;-1.0281713;-0.0401919;-0.0622292;0.9562674;-0.2188830;1.4745252;8
36.1120;-0.9382695;0.0298403;-0.0275936;0.6114284;-0.1333220;1.2478190;8
36.1630;-0.8959115;0.0182272;0.0150565;0.5800345;-0.1451869;0.9053370;8
36.2120;-0.8102578;0.0461264;-0.0495832;0.3153278;-0.0965950;0.4634184;8
36.2630;-0.7352922;0.0923551;-0.0569928;-0.0881800;-0.0252954;-0.1225697;8
36.3130;-0.8281885;0.2375689;0.0425998;-0.2694296;0.0852823;-0.6213414;8
36.3620;-1.0270319;0.4383020;0.0791443;0.0562753;0.0681806;-0.5610463;8
36.4130;-1.1090097;0.5141144;0.1022703;-0.0174275;0.1322124;-0.3688794;8
36.4620;-0.9090330;0.3036686;0.1372958;0.3345966;-0.1036371;-0.2113400;8
36.5130;-1.1048897;0.0680638;0.0065875;-0.0919344;-0.1320649;-0.7810517;8
36.5630;-1.1319935;0.1423518;-0.0418823;0.1185834;-0.0483259;-0.6484881;8
36.6120;-0.9712992;0.2985309;-0.0896795;0.2378716;0.0000563;-0.1309297;8
36.6630;-0.9275663;-0.2160072;0.1395160;-1.0008815;0.0118532;-0.6653373;8
36.7120;-0.9571529;-0.0290427;0.2216169;-0.0539663;0.0678653;-0.5801187;8
36.7630;-0.9375809;-0.1226390;0.1302230;0.1937072;0.1790785;-0.7283916;8
36.8130;-0.9974527;-0.0022713;0.1272107;-0.0591366;0.0148742;-0.7912639;8
36.8620;-1.0138162;-0.0134507;0.1139318;-0.3093782;0.0189244;-0.6387427;8
36.9130;-0.9928321;-0.0665000;0.1353258;-0.2677320;0.0123962;-0.3984397;8
36.9620;-0.9681093;-0.1094256;0.1416924;-0.2959980;0.0343599;-0.3512765;8
37.0130;-0.9662687;-0.1193873;0.1196917;-0.2164736;0.0601683;-0.3828360;8
37.0630;-0.9628406;-0.1457307;0.1080176;-0.2518019;0.0815379;-0.4210290;8
37.1120;-0.9627510;-0.1342010;0.1250837;-0.1852385;0.1053301;-0.4644922;8
37.1630;-0.9947088;-0.1345218;0.1301121;-0.3064880;0.1530354;-0.4245616;8
37.2120;-0.9935051;-0.1546490;0.1261785;-0.4228564;0.1453956;-0.4029424;8
37.2630;-1.0247593;-0.1452387;0.1102047;-0.4768107;0.1710429;-0.3300878;8
37.3130;-1.0932574;-0.1367690;0.1925270;-0.3401381;0.1628310;-0.2130225;8
37.3620;-1.1024368;-0.0660586;0.1653336;-0.0999001;0.1017704;0.0881217;8
37.4130;-1.0329700;0.1117715;0.1346999;0.2203079;-0.0680111;0.5928002;8
37.4620;-1.0906116;0.1672811;0.0554898;0.3591338;-0.0351890;1.4339884;8
37.5130;-1.1167307;-0.0292958;0.0033591;-0.0666762;-0.0436050;1.9697901;8
37.5630;-1.1984512;-0.1944946;0.1761151;0.2017149;-0.3242561;1.7597563;8
37.6120;-1.0442726;-0.1546489;0.0741747;1.2593693;-0.2502462;1.6660250;8
37.6630;-0.9716462;0.0499037;-0.1407926;0.9255007;-0.0913459;1.3678791;8
37.7120;-0.8891203;0.0100808;-0.0479900;0.4062582;0.0397322;1.0639709;8
37.7630;-0.8806170;0.0206047;0.0070720;0.4229347;0.1115741;0.7084667;8
37.8130;-0.8487822;0.0721235;-0.0378284;-0.0805303;0.1051870;0.3126239;8
37.8620;-0.8109589;0.1689724;0.0180687;-0.1719507;0.1269347;-0.2002177;8
37.9130;-0.8568844;0.3102706;0.1277314;-0.0724874;0.0428955;-0.4983037;8
37.9620;-0.9840113;0.2995805;0.0929605;0.1684183;0.0030809;-0.6994129;8
38.0130;-1.0993525;0.5170804;0.0605431;-0.0855389;0.1054402;-0.4920276;8
38.0630;-0.9581568;0.3888075;0.0600229;0.3666987;-0.0601505;-0.2643254;8
38.1120;-1.1233409;0.1487924;-0.0389966;-0.1583740;-0.0735774;-0.5533373;8
38.1630;-1.0203055;0.1184292;0.0437577;-0.2960547;-0.0178640;-0.5695239;8
38.2120;-0.9500077;0.2709167;0.1051355;0.5741162;-0.0966024;-0.2115625;8
38.2630;-0.9721261;-0.1507040;0.0286679;-0.9115020;-0.1182397;-0.7597676;8
38.3130;-0.9452189;0.0556913;0.1025804;-0.3205478;-0.0205010;-0.4181744;8
38.3620;-0.9624611;-0.0962353;0.2376694;-0.1368752;0.0717501;-0.4492741;8
38.4130;-0.9765590;-0.0278225;0.1995039;-0.4997394;-0.0796688;-0.6266320;8
38.4620;-0.9470418;-0.1662548;0.0706715;-0.3279008;0.0904612;-0.6882740;8
38.5130;-0.9997041;-0.1016233;0.1516181;0.0528295;0.1063139;-0.5407646;8
38.5630;-0.9764700;-0.1053545;0.1421553;-0.2412001;0.1136518;-0.4956868;8
38.6120;-0.9971531;-0.0819471;0.1066764;-0.2864851;0.1210147;-0.4735456;8
38.6630;-0.9700108;-0.1239155;0.1355878;-0.4088669;0.1157743;-0.4621448;8
38.7120;-0.9920526;-0.1196135;0.1656759;-0.2532410;0.1260876;-0.4124753;8
38.7630;-1.0265872;-0.1110891;0.1213498;-0.3093958;0.1545271;-0.3328891;8
38.8130;-1.0385798;-0.0989274;0.0929048;-0.4107559;0.1843019;-0.2812279;8
38.8620;-1.0064532;-0.1053221;0.1819179;-0.4342326;0.2427140;-0.2567931;8
38.9130;-1.0855460;-0.1601995;0.2568933;-0.0956953;0.2135165;-0.1342372;8
38.9620;-1.0260216;-0.0149678;0.1500235;0.4172988;0.0630994;0.1340098;8
39.0130;-1.0322814;0.1152487;0.0590569;0.4839896;-0.0630532;0.6765545;8
39.0630;-1.0785948;0.1245029;-0.1183280;0.1488271;0.1682599;1.5107880;8
39.1120;-1.1673256;-0.0711281;0.0042369;-0.3417005;0.0543145;1.8013921;8
39.1630;-1.1359694;-0.1872212;0.1367528;0.0510266;-0.1327418;1.7619463;8
39.2120;-1.0586349;-0.0521663;0.0664464;0.9312825;-0.2131488;1.4617092;8
39.2630;-0.9201842;0.0244186;-0.0598021;0.8183959;-0.0388303;1.2681714;8
39.3130;-0.9719024;0.0422393;-0.0067247;0.6266916;-0.0466025;1.0866239;8
39.3620;-0.8924759;0.0860189;0.0124989;0.3233202;-0.0829885;0.8099189;8
39.4130;-0.8423231;0.1047376;0.0004612;0.1010848;-0.0461676;0.3073113;8
39.4620;-0.7986639;0.1493659;-0.0177516;-0.0188188;0.0850285;-0.1928832;8
39.5130;-0.8377905;0.1953334;0.0732073;0.2412722;0.0136004;-0.6047594;8
39.5630;-0.9963700;0.3583513;0.0896064;0.2443997;-0.0685936;-0.8013474;8
39.6120;-1.0380760;0.5752930;0.0852897;-0.0577115;0.0277887;-0.4071141;8
39.6630;-1.0064368;0.2403876;-0.0576430;-0.1076034;-0.0786109;-0.0224920;8
39.7120;-1.1844445;0.0872698;0.0314730;-0.2195372;-0.1311997;-0.5114129;8
39.7630;-1.0605719;0.3000369;0.0352884;0.4557576;-0.1424449;-0.5712131;8
39.8130;-0.8429667;-0.1958556;0.0033376;-0.6873008;-0.0761312;-0.8635835;8
39.8620;-0.9887462;0.0590758;0.0984821;-0.4799482;-0.0524425;-0.7811932;8
39.9130;-0.9815104;0.0092321;0.2795203;-0.2502909;0.2399327;-0.6629440;8
39.9620;-0.9755053;0.0024784;0.1905681;-0.1875228;0.0595466;-0.6916136;8
40.0130;-0.9941012;0.0057892;0.1488339;-0.2078216;0.0618530;-0.5308034;8
40.0630;-0.9837807;-0.0361818;0.1788978;-0.2885172;0.0398674;-0.4370368;8
40.1120;-0.9846663;-0.0483986;0.2154318;0.0083085;0.0232693;-0.3524066;8
40.1630;-0.9628573;-0.0620811;0.1167679;-0.0384621;0.0664522;-0.3440176;8
40.2120;-0.9628617;-0.0744249;0.1044286;-0.1675295;0.0501637;-0.3896428;8
40.2630;-0.9508345;-0.1043458;0.1556101;-0.2492033;0.1417903;-0.4462540;8
40.3130;-0.9717654;-0.1280523;0.1656972;-0.1967293;0.2105261;-0.3878915;8
40.3620;-0.9583188;-0.1194775;0.1411099;-0.4041278;0.2339041;-0.4525968;8
40.4130;-0.9826528;-0.1268517;0.1425904;-0.5200955;0.2338420;-0.3421840;8
40.4620;-1.0081711;-0.1148155;0.1470284;-0.4491513;0.1575001;-0.2461816;8
40.5130;-1.2217932;-0.1136281;0.1696194;-0.2558671;0.0947158;0.0057754;8
40.5630;-1.2407819;0.1846577;0.1317713;0.2885086;-0.1104547;0.6518168;8
40.6120;-1.1589065;0.2850469;-0.0036748;0.4016622;0.0867612;1.7496192;8
40.6630;-0.9923740;-0.0185544;-0.1027280;-0.5270005;0.3473403;2.1825714;8
40.7120;-1.1431478;-0.3260778;0.1693841;0.0434591;-0.2226857;1.7584138;8
40.7630;-1.0292559;-0.1558680;0.1229108;1.0680068;-0.2247993;1.5314630;8
40.8130;-0.9574132;0.1235198;-0.0728090;0.8061317;-0.2774929;1.2568665;8
40.8620;-0.8872760;0.0310659;-0.0276699;0.6445506;-0.2679970;0.9237337;8
40.9130;-0.8771084;0.0596262;-0.1176483;0.3947062;-0.0455315;0.5450935;8
40.9620;-0.8120712;0.1482495;-0.0416639;0.1139776;0.0133333;0.1521525;8
41.0130;-0.7813259;0.2475883;0.0251917;-0.3419329;0.1132553;-0.4275355;8
41.0630;-0.9428965;0.3981555;0.1054033;-0.0206927;0.0808681;-0.8107304;8
41.1120;-1.0331772;0.3828042;0.0899414;0.3467628;0.1703963;-0.5974448;8
41.1630;-0.9581044;0.4501870;0.1213355;0.0491258;0.0695615;-0.1699780;8
41.2120;-1.0652072;0.0683961;-0.0230021;-0.1205404;-0.0360712;-0.5964096;8
41.2630;-1.1248606;0.0353803;0.0761799;0.1081599;-0.0290275;-0.5007726;8
41.3130;-1.0765162;0.4108794;0.0044920;0.4710119;-0.2147021;-0.2528663;8
41.3620;-0.8502144;-0.2312920;-0.0573177;-1.2603494;-0.0296020;-0.6964693;8
41.4130;-0.9909135;0.1216810;0.1917464;-0.2035510;0.0324039;-0.4813122;8
41.4620;-0.9782035;-0.0017864;0.2518111;-0.2086017;0.0064154;-0.5701394;8
41.5130;-0.9902078;0.0251242;0.2032753;0.1108352;-0.0943565;-0.4473437;8
41.5630;-0.9749384;-0.0012196;0.1341397;0.0631531;-0.0189609;-0.3198955;8
41.6120;-0.9501865;-0.1120818;0.0703955;-0.2385971;-0.0092775;-0.5309940;8
41.6630;-0.9781073;-0.1098571;0.1019999;-0.2219640;0.1461992;-0.5129582;8
41.7120;-0.9722307;-0.0882813;0.1272735;-0.2445510;0.2119223;-0.5188070;8
41.7630;-0.9546296;-0.0580719;0.1143218;-0.2877756;0.2518581;-0.5931643;8
41.8130;-0.9868272;-0.0480727;0.1501252;-0.4221113;0.3084803;-0.6381604;8
41.8620;-0.9969876;0.0060928;0.2078960;-0.1987541;0.2633212;-0.4984833;8
41.9130;-0.9741740;-0.0388483;0.2054286;-0.2646946;0.1993750;-0.4487795;8
41.9620;-1.0010861;-0.0867418;0.2155098;-0.1614920;0.1602450;-0.2989686;8
42.0130;-1.1889239;-0.1519325;0.1641372;-0.0132112;0.0366163;-0.0085347;8
42.0630;-1.2311818;0.1251389;0.1964776;0.6501638;-0.0829985;0.5265252;8
42.1120;-1.1648376;0.1238638;-0.0010468;0.5337782;-0.0489341;1.5208976;8
42.1630;-1.0498265;-0.0294166;-0.2049275;0.0259879;0.2291923;2.1041707;8
42.2120;-1.0543396;-0.1982188;0.0392734;-0.3652663;-0.0126491;1.6679150;8
42.2630;-1.0658805;-0.2119056;0.1463913;0.5177085;-0.0580147;1.4396423;8
42.3130;-0.9743969;0.0614998;-0.0034094;0.8199194;-0.0639842;1.1274146;8
42.3620;-0.9121524;0.0641823;-0.0477791;0.7084987;-0.1094720;0.8826802;8
42.4130;-0.8410539;0.1058141;-0.0766413;0.3277859;-0.0685458;0.5809013;8
42.4620;-0.8059285;0.1788101;-0.0175624;-0.2023928;0.0079557;0.1987078;8
42.5130;-0.8476001;0.2710886;0.0794137;-0.3549758;0.0615525;-0.0047795;8
42.5630;-0.8822268;0.3744071;0.1380175;0.0170126;0.0394241;-0.2504628;8
42.6120;-0.9696468;0.3949484;0.1037421;0.2708819;0.0287244;-0.4544175;8
42.6630;-1.0138245;0.4978358;0.0322006;0.0822396;0.0331638;-0.4239084;8
42.7120;-0.9777259;0.3687091;-0.0024268;-0.1498895;-0.1256329;-0.3645569;8
42.7630;-1.1039797;0.0135541;0.0042333;0.0414826;-0.0446570;-0.5989433;8
42.8130;-1.1441495;0.2236919;0.1176780;0.5239855;-0.0513108;-0.3482470;8
42.8620;-0.8357231;0.1735775;-0.0010072;0.1856942;-0.2253735;-0.3737346;8
42.9130;-0.9765084;-0.1751217;0.0296768;-1.1608512;-0.1160208;-0.9173131;8
42.9620;-0.9620098;0.0875182;0.1215308;-0.0884839;0.0500637;-0.3576052;8
43.0130;-0.9715263;-0.0611248;0.2672594;-0.1969976;0.0570409;-0.5222022;8
43.0630;-0.9610404;-0.0392918;0.2721129;-0.2863430;-0.1112480;-0.6670778;8
43.1120;-0.9547123;-0.1529270;0.0757040;-0.3119341;0.0264306;-0.7535637;8
43.1630;-0.9568456;-0.1240389;0.0486799;-0.1067123;0.2312963;-0.7128724;8
43.2120;-1.0103281;-0.0691155;0.1900450;-0.1327192;0.1994819;-0.5883371;8
43.2630;-0.9875417;-0.0518446;0.1572064;-0.3228825;0.1778088;-0.6027634;8
43.3130;-1.0135182;-0.0247839;0.1346238;-0.4050581;0.1569448;-0.4744983;8
43.3620;-0.9663481;-0.1371356;0.1204029;-0.6095663;0.1737080;-0.4170120;8
43.4130;-0.9796557;-0.1983575;0.1390579;-0.4610293;0.2195450;-0.3895015;8
43.4620;-0.9980165;-0.2447114;0.1161583;-0.5359485;0.3080027;-0.4976475;8
43.5130;-1.0303721;-0.1657417;0.0965983;-0.3050719;0.2947209;-0.4402221;8
43.5630;-1.0772311;-0.1119005;0.1894208;-0.3545390;0.2409502;-0.3327285;8
43.6120;-1.0826209;-0.0713661;0.1577858;-0.2709358;0.1965826;-0.0348360;8
43.6630;-1.0236470;-0.0671022;0.0724522;0.0641814;0.0906467;0.4021708;8
43.7120;-1.0026071;-0.0587548;-0.0360414;-0.0445871;0.0297446;0.7528643;8
43.7630;-0.9822316;-0.0258936;-0.1074964;0.0291764;0.1490726;1.2906213;8
43.8130;-1.0990445;-0.1486566;0.0493403;-0.2672755;-0.0217394;1.5740848;8
43.8620;-1.1152566;-0.2303655;0.1021934;0.6015493;-0.1927425;1.5890537;8
43.9130;-1.0867027;-0.1285998;-0.0890368;1.0717705;-0.2282035;1.3721066;8
43.9620;-1.0011208;-0.0003222;-0.0841262;0.8094253;-0.1237952;1.2198629;8
44.0130;-0.9561654;-0.0520636;0.0486492;0.5520308;-0.1707228;0.9837157;8
44.0630;-0.9065283;-0.0182527;-0.0031170;0.6410083;-0.1518950;0.7598384;8
44.1120;-0.8540435;0.0502648;-0.0648191;0.3611462;-0.1408641;0.4556105;8
44.1630;-0.8712564;0.1804473;-0.0396982;0.0633161;-0.0754918;0.0164091;8
44.2120;-0.9579704;0.3801770;0.0964675;0.2921864;-0.1419028;0.0660208;8
44.2630;-0.9674220;0.3367708;0.0639393;0.0242458;-0.1728747;-0.2244215;8
44.3130;-0.9093387;0.2692322;0.0774786;-0.4268050;-0.0697255;-0.2130812;8
44.3620;-0.9081757;0.1498923;0.0143341;0.5517692;-0.0538981;-0.4021591;8
44.4130;-1.2145023;0.0809405;0.0305204;-0.2311701;-0.1269879;-0.8763824;8
44.4620;-1.0411170;0.2701568;-0.0103812;0.2117909;-0.1088992;-0.4278484;8
44.5130;-0.8650117;-0.0739967;-0.0101182;-0.7244771;0.0244244;-0.5568417;8
44.5630;-1.0156461;-0.0063115;0.1526141;-0.9282553;-0.0418731;-0.7509738;8
44.6120;-0.9553291;-0.0418285;0.1394130;-0.3306334;0.1602232;-0.5971934;8
44.6630;-1.0018895;-0.0027048;0.2031577;-0.0917404;0.0952199;-0.5952781;8
44.7120;-0.9861546;-0.0226154;0.2183427;0.0102618;0.0345825;-0.5797497;8
44.7630;-0.9715482;-0.0887795;0.1699411;0.0976410;0.0940685;-0.5295318;8
44.8130;-0.9817690;-0.0781627;0.0758666;0.0058536;0.0882576;-0.5331025;8
44.8620;-0.9808468;-0.1111735;0.0639236;-0.1820516;0.1573705;-0.5382720;8
44.9130;-0.9639170;-0.1095083;0.1411598;-0.1118170;0.1678129;-0.5184904;8
44.9620;-0.9607648;-0.1134760;0.1651899;-0.2368246;0.2449113;-0.5038288;8
45.0130;-0.9881836;-0.0839517;0.1033412;-0.3317848;0.1988499;-0.3868226;8
45.0630;-0.9768256;-0.1487746;0.1482382;-0.5386228;0.1964286;-0.3272610;8
45.1120;-0.9750307;-0.1899011;0.1884826;-0.5627825;0.1810814;-0.3078160;8
45.1630;-1.1449302;-0.1527915;0.1304374;-0.2831912;0.1043348;-0.2112515;8
45.2120;-1.1795239;0.0052860;0.1569414;-0.1064420;0.0121043;0.0675221;8
45.2630;-1.1101802;-0.0077697;0.1636186;0.0495319;0.0163263;0.5588677;8
45.3130;-1.0621498;0.0880455;-0.0045603;0.4192302;0.0058044;1.1934430;8
45.3620;-1.0189660;0.0121591;-0.1702427;0.1742144;0.3155905;2.0269323;8
45.4130;-1.1325475;-0.1737904;0.0002337;-0.3344717;0.0726953;1.8433264;8
45.4620;-1.0763345;-0.2218294;0.1176026;0.4439172;-0.0524712;1.5361746;8
45.5130;-0.9589623;0.0189165;0.0178876;0.8906509;-0.0366260;1.2515947;8
45.5630;-0.9113492;0.0060721;-0.0137079;0.7061811;-0.1584556;1.0015145;8
45.6120;-0.8423824;0.0399531;-0.0989881;0.4606360;-0.1168072;0.7141731;8
45.6630;-0.8237263;0.1092615;-0.0395171;-0.1168681;-0.0780225;0.2798124;8
45.7120;-0.8537915;0.2036688;0.0468372;-0.2270416;-0.0746298;-0.1387327;8
45.7630;-0.9214384;0.2599201;0.0831982;0.3088805;-0.1098942;-0.2928978;8
45.8130;-1.0078238;0.4097781;0.0584735;0.1494996;-0.0418430;-0.2396008;8
45.8620;-1.0289604;0.5075250;0.0408289;0.2033915;-0.0683706;-0.1845232;8
45.9130;-0.9812635;0.3063106;-0.0576641;-0.2359928;-0.2527409;-0.2503435;8
45.9620;-1.1247720;0.0665662;-0.0055397;-0.2043453;-0.0624392;-0.1522448;8
46.0130;-0.9773011;0.2539445;0.2513173;0.6333095;-0.0497335;-0.2631351;8
46.0630;-0.9390002;-0.0201493;-0.0176041;0.1560127;-0.1932569;-0.6624051;8
46.1120;-0.9677724;0.0221258;-0.0478767;-0.4217955;0.0153288;-0.7428700;8
46.1630;-0.9868675;-0.0231632;0.1463130;-0.3598817;0.0858773;-0.7620445;8
46.2120;-0.9725817;0.0278355;0.2893723;-0.3349666;0.0485041;-0.6654266;8
46.2630;-0.9716990;0.0262848;0.2128797;-0.1586312;-0.0003730;-0.7296702;8
46.3130;-0.9961424;0.0117970;0.1065976;-0.0491696;0.1035358;-0.6275982;8
46.3620;-0.9849654;-0.0656055;0.1211437;-0.1703974;0.0248944;-0.5637257;8
46.4130;-0.9585370;-0.1230583;0.1100975;-0.2920707;0.0776199;-0.5806922;8
46.4620;-0.9680852;-0.1381699;0.1188953;-0.2672915;0.1450224;-0.5918320;8
46.5130;-0.9675493;-0.1040397;0.1443095;-0.2319041;0.1755060;-0.5407569;8
46.5630;-0.9830428;-0.0755148;0.1351269;-0.3916208;0.2306819;-0.4134720;8
46.6120;-0.9788150;-0.0901155;0.1716303;-0.3517348;0.1845756;-0.3898047;8
46.6630;-0.9837292;-0.0773907;0.1861032;-0.4475807;0.1594066;-0.3071818;8
46.7120;-0.9864925;-0.0989208;0.1618766;-0.5102143;0.1058076;-0.2238716;8
46.7630;-1.2126173;-0.1493797;0.1896585;-0.2763047;0.0491365;-0.0817698;8
46.8130;-1.1722025;0.0922827;0.1990588;0.4261159;0.0318776;0.3812245;8
46.8620;-1.0997248;0.1327926;0.1352174;0.6409857;-0.0358373;1.0499081;8
46.9130;-1.0597464;0.0514501;-0.0908682;0.5860861;0.2112764;1.8683598;8
46.9620;-1.1047548;-0.1018394;-0.0445409;-0.1901005;-0.0368184;1.8192730;8
47.0130;-1.1126242;-0.2194856;0.1694610;0.2283986;-0.0823474;1.7707833;8
47.0630;-1.0234003;-0.0406304;-0.0249171;0.6606685;-0.0886446;1.3036796;8
47.1120;-0.9167247;0.0461647;-0.0283565;0.6819914;-0.0771669;1.1509822;8
47.1630;-0.8582633;0.0530508;-0.0325510;0.5859287;0.0345490;0.7960057;8
47.2120;-0.7939563;0.0945711;-0.0769343;0.0808833;0.0527510;0.3815565;8
47.2630;-0.7776520;0.1550219;0.0124340;-0.4428562;0.0632238;-0.0431154;8
47.3130;-0.8658333;0.3109032;0.1411819;-0.2758703;0.0498631;-0.2512508;8
47.3620;-0.9953191;0.4626795;0.1509798;0.2428290;0.0763629;-0.1462924;8
47.4130;-1.0776988;0.5984451;0.1216700;0.2638751;0.0090855;-0.0129132;8
47.4620;-0.9455555;0.4212210;0.0649887;0.0077837;-0.1969347;0.0761292;8
47.5130;-1.1323647;0.1573297;0.0151321;0.1984738;-0.2166146;-0.1152497;8
47.5630;-1.0501008;0.2823124;0.1433112;0.9493170;-0.3226162;-0.3326574;8
47.6120;-0.8026225;0.0382136;-0.0364694;0.1551820;-0.2037018;-0.5104014;8
47.6630;-1.0261997;-0.1111578;-0.0401310;-0.3883703;-0.0467158;-1.0122342;8
47.7120;-0.9454768;-0.0545947;0.2073774;0.0154328;0.1211493;-0.9527152;8
47.7630;-0.9759350;0.0955219;0.2816405;-0.3304937;0.0489470;-0.9255203;8
47.8130;-0.9450364;-0.0221265;0.1198092;-0.2483615;-0.0123526;-0.9866502;8
47.8620;-0.9744658;-0.0832290;0.0103258;-0.4759452;0.1028113;-0.9978767;8
47.9130;-0.9405132;-0.1627636;0.0850711;-0.6040663;0.1320372;-1.0459067;8
47.9620;-0.9412294;-0.2042581;0.1534437;-0.7557230;0.3305906;-1.2613223;8
48.0130;-1.0162066;-0.1317637;0.1704465;-0.7840556;0.4206083;-1.0766888;8
48.0630;-1.0340659;-0.0424903;0.1700332;-0.5441870;0.2519657;-0.8401095;8
48.1120;-1.0453742;-0.0685489;0.1713660;-0.8421838;0.2138109;-0.6563959;8
48.1630;-1.0887753;-0.0911872;0.1683165;-0.6057630;0.3104624;-0.4424096;8
48.2120;-1.0705092;0.0154645;0.2347862;-0.3329874;0.1275294;-0.0868251;8
48.2630;-1.2691465;0.1695600;0.2705111;0.0161532;-0.0699971;0.5777081;8
48.3130;-1.3095949;0.3015927;-0.2008779;0.2727817;0.0873702;2.1547861;8
48.3620;-1.2990057;-0.2936233;0.0196349;-1.0645644;-0.5417806;2.3702767;8
48.4130;-1.2064609;-0.3122441;0.1956710;1.1826455;-0.4911052;2.2226616;8
48.4620;-1.0043135;-0.0194992;-0.1415773;1.5508942;-0.2144581;2.1847658;8
48.5130;-0.8833865;-0.1384289;-0.0491138;0.5638863;-0.1738535;1.8612732;8
48.5630;-0.7744216;-0.2279867;-0.0464845;0.5994587;-0.0999014;1.4237540;8
48.6120;-0.6447838;-0.1494312;-0.0894619;0.1041549;-0.0884690;0.7464373;8
48.6630;-0.5515203;0.0143356;0.0907165;-0.0733389;-0.1319824;-0.4907484;8
48.7120;-1.0297971;0.5325457;0.0828063;0.0937734;-0.2346812;-1.2362762;8
48.7630;-1.2797031;1.0738747;0.2301221;0.5505887;-0.0891098;-0.0992536;8
48.8130;-0.8298260;0.3704314;-0.0879454;0.2261197;-0.2439740;-0.0150417;8
48.8620;-1.5175877;-0.0478247;0.1639554;0.5447113;-0.3042480;-0.6976830;8
48.9130;-0.5456438;-0.0325084;-0.0383063;-0.0749173;-0.2474145;-0.4560457;8
48.9620;-1.0572763;-0.3997297;0.1850639;-0.6107843;0.3047995;-2.0081086;8
49.0130;-0.9056209;-0.1876606;0.0815717;-0.1627447;0.4604960;-1.3784919;8
49.0630;-1.1262741;-0.0462283;0.0988440;-0.8821612;0.2011855;-1.8507517;8
49.1120;-0.9169739;-0.0656227;0.1204435;-0.7057327;0.2316771;-1.4231480;8
49.1630;-0.9597242;-0.2515495;0.2252299;-0.8943279;0.4209396;-1.1594557;8
49.2120;-0.9354867;-0.1076416;0.0872410;-0.7122975;0.4014043;-1.1030473;8
49.2630;-0.9818164;0.0722255;-0.0127063;-0.7335860;0.3268704;-0.9882037;8
49.3130;-0.9991592;0.0640419;0.1827387;-1.0704215;0.2436781;-0.5178482;8
49.3620;-1.0712629;0.0230751;0.4063331;-0.5076162;0.2181238;-0.0541214;8
49.4130;-1.5184592;0.2026532;0.2290127;0.5175385;-0.0105039;0.9391394;8
49.4620;-1.3606459;0.2919254;-0.4276672;-0.2379169;0.0534925;2.7964990;8
49.5130;-1.4290370;-0.5255294;0.1721256;-0.6110465;-1.0127725;2.5683186;8
49.5630;-1.2222254;-0.2441065;0.0127496;1.8622582;-0.5472157;2.5599029;8
49.6120;-0.9748189;-0.1474911;-0.0223234;0.9772668;-0.4759252;2.1291241;8
49.6630;-0.7873791;-0.3213488;0.0275737;0.9514017;-0.4500426;1.6185923;8
49.7120;-0.4563217;-0.3550526;-0.2141429;1.2018764;-0.2947797;0.6827718;8
49.7630;-0.3835657;-0.1696019;-0.1028868;0.2570379;-0.0607037;-0.6374731;8
49.8130;-1.1380649;0.9092751;0.1613867;-0.9962485;-0.0575025;-0.8198657;8
49.8620;-1.4329219;1.2049650;0.1710428;2.0253568;-0.2675720;0.7147010;8
49.9130;-0.8572636;-0.0346361;-0.2044811;-1.8235864;-0.3899945;-0.2947671;8
49.9620;-1.1327961;-0.0204636;0.4337162;1.7205595;-0.4302390;-0.0972742;8
50.0130;-0.8137313;-0.6159374;-0.0481250;-0.6800267;0.1885357;-1.6906666;8
50.0630;-0.9777341;-0.1930421;0.2662347;-0.2459729;0.3751877;-1.7891573;8
50.1120;-0.9488195;-0.1111269;0.0092363;-0.6552761;0.3646099;-1.9410578;8
50.1630;-0.9944456;-0.0384308;0.0277052;-1.4305493;0.2299549;-2.1925784;8
50.2120;-0.9137114;-0.1609414;0.1218551;-1.7189397;0.5061633;-1.2906049;8
50.2630;-1.0228350;-0.1906111;0.2928701;-0.8510188;0.4944309;-1.2123452;8
50.3130;-1.0078233;0.0984080;0.0664489;-0.9474798;0.3838991;-1.2936819;8
50.3620;-1.1532777;0.2265351;0.1363686;-0.8855965;0.2722780;-0.5202293;8
50.4130;-1.1417726;0.0594334;0.4467887;-0.8958552;0.3248067;0.1598640;8
50.4620;-1.4182724;0.1864900;0.4168062;0.4266276;0.0725936;0.9291039;8
50.5130;-1.3177600;0.2587084;-0.4321716;0.2654147;0.2201251;2.8132222;8
50.5630;-1.4376439;-0.5372439;0.1289352;-0.5211080;-1.1552333;2.4726949;8
50.6120;-1.2392038;-0.2397030;0.0345976;2.1024417;-0.7197225;2.4660368;8
50.6630;-0.9663905;-0.0809159;-0.1180268;1.1812996;-0.6032616;2.1691076;8
50.7120;-0.7783420;-0.2659108;-0.0124004;0.9111665;-0.6320316;1.6668282;8
50.7630;-0.5155299;-0.2830004;-0.1761380;1.3168819;-0.3524220;1.0126567;8
50.8130;-0.4044568;-0.1366069;-0.0911392;0.1534195;-0.1864266;-0.0681060;8
50.8620;-0.9230328;0.6496885;0.1855060;-1.0706241;-0.2346605;-0.9221066;8
50.9130;-1.4614255;1.2173805;0.2125318;2.1006861;-0.2397390;-0.0084173;8
50.9620;-1.1406437;0.4009494;-0.3214587;-1.2200694;-0.3262675;-0.1795064;8
51.0130;-0.9604538;-0.3367390;0.2450807;0.9035027;-0.3274570;-0.3372517;8
51.0630;-0.9032708;-0.5174920;0.2050489;-0.2241968;0.1816404;-1.6593703;8
51.1120;-0.9068117;-0.1005706;0.1864227;-0.1382872;0.3801551;-1.7477017;8
51.1630;-0.9628012;-0.0489445;0.0015629;-0.4708234;0.3237750;-1.8381510;8
51.2120;-1.0070791;-0.0428740;0.0545397;-1.5522798;0.1671579;-2.0024105;8
51.2630;-0.9331287;-0.1263312;0.1926856;-1.5088077;0.3836048;-1.2820594;8
51.3130;-0.9641602;-0.2015382;0.2538656;-1.0723910;0.6359273;-1.1718586;8
51.3620;-0.9758370;-0.1010313;0.1477179;-0.6519063;0.5570149;-1.3103747;8
51.4130;-1.0854009;0.1479758;0.0499679;-0.2298743;0.3538758;-0.9550369;8
51.4620;-1.1452911;0.2051453;0.2155239;-1.1202633;0.3085138;-0.1603336;8
51.5130;-1.3428883;0.2446009;0.5109928;-0.3713344;0.2096109;0.5568112;8
51.5630;-1.4292556;0.3374712;-0.0728417;0.4901045;0.0134268;2.4519932;8
51.6120;-1.4893758;-0.4888571;0.0533529;-0.3151004;-1.2071676;2.5693240;8
51.6630;-1.4525659;-0.3206847;-0.0152239;1.8766800;-0.9550296;2.6400875;8
51.7120;-0.9668852;-0.1275463;-0.2053198;1.7080180;-0.5347659;2.5221372;8
51.7630;-0.8131675;-0.2554737;-0.0642217;0.2909037;-0.5364478;2.0009967;8
51.8130;-0.5382730;-0.4080516;-0.1201323;0.9388597;-0.2910795;1.2609194;8
51.8620;-0.2903808;-0.3289061;-0.2161164;0.6747299;0.0968313;0.1212326;8
51.9130;-0.9114759;0.4829490;0.2436383;-0.6692375;-0.0284183;-0.9844041;8
51.9620;-1.5870207;1.3841374;0.2478545;1.7012429;-0.1813302;-0.2245782;8
52.0130;-1.0506599;0.1649874;-0.1905641;-0.7119727;-0.3180042;0.0666346;8
52.0630;-0.9962069;-0.0561797;0.3584663;0.8085520;-0.5232052;-0.3285485;8
52.1120;-0.8519406;-0.5312952;-0.0571749;-0.1397422;0.2056213;-1.4431000;8
52.1630;-0.9171184;-0.1806117;0.2218493;-0.2389018;0.3270189;-1.6130893;8
52.2120;-0.9596788;-0.0859093;0.0413778;-0.6090156;0.2661230;-1.8196490;8
52.2630;-0.9863369;-0.0375612;0.0030052;-1.1093236;0.3077992;-2.1838477;8
52.3130;-0.9720469;-0.1186800;0.2413011;-1.2587908;0.3988426;-1.8915708;8
52.3620;-0.9879892;-0.1387442;0.2542062;-1.3295029;0.5840382;-1.1850922;8
52.4130;-1.0444016;-0.0415184;0.0694916;-0.9200829;0.4488593;-1.1930534;8
52.4620;-1.1461987;0.1641365;0.1083344;-0.9127841;0.3207868;-0.7922379;8
52.5130;-1.1873137;0.2640982;0.4409839;-0.8056279;0.2592113;0.0114635;8
52.5630;-1.4461284;0.3648817;0.3811886;0.1615352;0.1041496;1.1283096;8
52.6120;-1.3515255;0.1944635;-0.2482976;-0.2811033;-0.0449119;3.0349853;8
52.6630;-1.4905910;-0.5903611;0.1962357;0.1160247;-1.4234956;2.2770083;8
52.7120;-1.2514694;-0.2703321;-0.0028235;2.5498207;-0.8475156;2.5815185;8
52.7630;-0.9262740;-0.1061329;-0.2089718;1.4420877;-0.5921813;2.2428066;8
52.8130;-0.7690885;-0.2821811;-0.0525135;0.6239784;-0.5535714;1.6659183;8
52.8620;-0.5024143;-0.3857432;-0.2145485;1.0407164;-0.2232684;0.8441086;8
52.9130;-0.3551350;-0.2557154;-0.1795532;0.3755510;0.1304751;-0.4796466;8
52.9620;-1.1843031;1.1123165;0.2683072;-1.0014053;0.1252291;-0.8990325;8
53.0130;-1.3328634;0.9471766;0.1374120;1.2880564;-0.3756133;0.0526299;8
53.0630;-1.1637144;-0.1783287;0.0833901;-0.9498118;-0.4246095;-0.2459658;8
53.1120;-0.8080959;-0.0779734;0.1453462;1.9121300;-0.4498199;-0.3434889;8
53.1630;-0.9645097;-0.4695444;-0.0967233;-1.0536171;0.2904213;-1.6147850;8
53.2120;-0.9370221;-0.2263640;0.4172296;-0.6266363;0.3392778;-1.9287915;8
53.2630;-0.9841928;-0.1618338;0.0455975;-0.9733549;0.3739347;-2.0922569;8
53.3130;-1.0194342;-0.0619794;-0.0400257;-1.3914753;0.4562116;-2.1829734;8
53.3620;-0.9396695;-0.1344838;0.2438559;-1.5741633;0.5827124;-1.2564398;8
53.4130;-1.0204322;-0.0689973;0.3068774;-0.5674969;0.4592788;-1.1796096;8
53.4620;-1.0413353;0.1376688;0.0420019;-0.8770305;0.3133966;-1.2166831;8
53.5130;-1.1250532;0.3423508;0.1824911;-0.8294494;0.1402580;-0.3576088;8
53.5630;-1.2143408;0.1364828;0.4741152;-0.7842577;0.2096312;0.4552656;8
53.6120;-1.4736567;0.2580892;0.1342267;0.8890385;0.0425884;1.8447513;8
53.6630;-1.3717263;-0.1775128;-0.2468475;-0.3426216;-0.5636996;3.0548806;8
53.7120;-1.4975740;-0.4476603;0.0063384;0.5311907;-1.0723965;2.5845493;8
53.7630;-1.0912427;-0.1616866;0.0156791;2.0102608;-0.5766535;2.6748960;8
53.8130;-0.8603226;-0.1728265;-0.0694298;0.6250977;-0.4761821;2.0061176;8
53.8620;-0.6703822;-0.3677034;-0.0330863;0.8929690;-0.4859988;1.2708549;8
53.9130;-0.3031155;-0.3720673;-0.3168194;1.2319023;-0.1696455;0.2028304;8
53.9620;-0.6649520;0.0586394;0.0672434;0.1536149;0.0539973;-1.1896933;8
54.0130;-1.6691600;1.6292319;0.2603200;0.3682910;0.0302636;-0.4840472;8
54.0630;-0.8246047;0.2888038;-0.0858394;-0.5591034;-0.4025806;-0.0758605;8
54.1120;-1.2550575;-0.2057823;0.4172033;0.2077261;-0.4922316;-0.3688478;8
54.1630;-0.7165790;-0.5216750;-0.1654713;0.7552373;0.0387806;-1.2078382;8
54.2120;-1.0245494;-0.1513794;0.1545667;-0.5669143;0.3121067;-1.5472360;8
54.2630;-0.9541926;-0.1598471;0.1757862;-0.6941274;0.2650444;-1.8399658;8
54.3130;-1.0291808;-0.1543167;0.0298394;-1.3674379;0.3493349;-2.1866255;8
54.3620;-0.9777896;-0.1384005;0.0904200;-1.2550679;0.5004801;-1.5393672;8
54.4130;-1.0335114;-0.1485662;0.1811173;-1.1574532;0.4767724;-1.2692574;8
54.4620;-1.0507499;0.1876127;0.1223846;-1.1787732;0.3356828;-1.2054547;8
54.5130;-1.1034191;0.2581326;0.1971204;-1.1770602;0.2513255;-0.6389237;8
54.5630;-1.0997488;0.0808379;0.4918374;-0.6511294;0.3864542;0.1352037;8
54.6120;-1.4193952;0.2787967;0.3577667;0.7181393;0.0280810;1.1616816;8
54.6630;-1.3964000;0.0911521;-0.2421242;0.2017778;-0.2998024;2.8676927;8
54.7120;-1.5472491;-0.4699501;-0.1145206;0.1716078;-1.2986192;2.7377733;8
54.7630;-1.2574839;-0.2027426;-0.0171567;1.7380994;-0.7629461;2.8225177;8
54.8130;-0.8798403;-0.1789517;-0.1271407;0.6582835;-0.4560883;2.2455855;8
54.8620;-0.6778751;-0.3360225;-0.0195909;0.3626760;-0.4757760;1.5411668;8
54.9130;-0.2920116;-0.4273730;-0.2124976;1.3449865;-0.1807336;0.4460881;8
54.9620;-0.5640855;-0.1738217;0.0693673;0.8506976;0.0077723;-1.0608072;8
55.0130;-1.6365950;1.6083495;0.3134398;-0.7253125;0.1027139;-0.4240517;8
55.0630;-0.8882606;0.4918492;-0.0467010;0.8698356;-0.4839246;0.0036235;8
55.1120;-1.3811442;-0.1639161;0.3081712;-0.3664178;-0.3780478;-0.5527187;8
55.1630;-0.4642844;-0.3102165;-0.2896858;1.2450553;-0.2716312;-0.7640829;8
55.2120;-1.1895542;-0.2864463;0.3243427;-0.9149923;0.2760250;-1.8900910;8
55.2630;-0.8536760;-0.2417905;0.2547864;-0.5014310;0.3867009;-1.9566527;8
55.3130;-1.0953814;-0.1106814;-0.0194652;-1.0593472;0.4136359;-2.0110640;8
55.3620;-0.9991081;-0.0173901;0.0564833;-1.1428793;0.3433287;-1.5649431;8
55.4130;-0.9831465;-0.2456730;0.1412161;-1.5324239;0.4663493;-1.3043478;8
55.4620;-1.0194187;0.0696018;0.1957149;-0.9889122;0.4435099;-1.2006650;8
55.5130;-1.0885207;0.3056471;0.1201896;-1.1098499;0.2542037;-0.9476817;8
55.5630;-1.0931069;0.2273813;0.3466714;-1.2125118;0.2695932;0.1385149;8
55.6120;-1.2781229;0.1934546;0.5353751;0.1201756;0.1062298;1.1275113;8
55.6630;-1.4237662;0.2468740;-0.2189240;0.4335906;-0.1820575;2.6738829;8
55.7120;-1.5169895;-0.4889671;-0.1087032;-0.3026758;-1.3360016;2.7024123;8
55.7630;-1.3335819;-0.1888699;-0.0199011;1.5543505;-0.9031698;2.7507142;8
55.8130;-0.9166913;-0.1888608;-0.0799409;1.0918048;-0.5247706;2.2400044;8
55.8620;-0.7693855;-0.3128079;0.0533413;0.5661009;-0.6153655;1.6133428;8
55.9130;-0.3685870;-0.4632159;-0.1743037;1.8881495;-0.3839199;0.6011706;8
55.9620;-0.4732271;-0.2617776;-0.1146627;1.2453401;-0.0193835;-0.8834132;8
56.0130;-1.4670798;1.4943455;0.2447984;-0.7962410;0.0698534;-0.3130604;8
56.0630;-1.0265105;0.6754131;-0.1078424;1.2973111;-0.4402874;-0.0767265;8
56.1120;-1.1389984;-0.4484512;0.0369315;-1.4348807;-0.4680403;-0.8906838;8
56.1630;-0.8754974;0.0581426;0.2873527;2.0469654;-0.1667241;-0.5059534;8
56.2120;-0.9354870;-0.2965602;0.0554168;-0.9146941;0.2065856;-1.5639948;8
56.2630;-0.8831603;-0.1550921;0.3017641;-0.4545781;0.2581612;-1.9004674;8
56.3130;-0.9311766;-0.1248339;-0.0012452;-0.6878448;0.3023790;-1.9793279;8
56.3620;-1.0056690;-0.1199245;-0.0407871;-1.3546007;0.3476073;-2.0938407;8
56.4130;-0.9880859;-0.2022578;0.1986941;-1.7293172;0.5515105;-1.1833253;8
56.4620;-1.0649069;-0.0984941;0.2840973;-0.8256741;0.4236446;-1.3011075;8
56.5130;-1.1280453;0.2062080;0.0844564;-0.8514893;0.3245116;-1.1121484;8
56.5630;-1.1564039;0.1858698;0.2302223;-1.1092881;0.3112905;-0.2989859;8
56.6120;-1.0983984;0.1734003;0.3170241;-0.8232370;0.2764157;0.3619215;8
56.6630;-1.4608699;0.4295437;0.2105319;0.0199435;0.1631431;1.6843426;8
56.7120;-1.4438192;-0.3117130;0.0633090;-0.1039503;-0.7812951;2.8798270;8
56.7630;-1.5312041;-0.3133974;-0.1631965;1.1758838;-1.2761071;2.7609053;8
56.8130;-1.1265507;-0.1926648;-0.0306576;1.7992619;-0.7602237;2.7908344;8
56.8620;-0.8701119;-0.2692925;-0.0893731;0.6986889;-0.5793150;2.1886775;8
56.9130;-0.6069580;-0.4640618;-0.0296897;0.9726603;-0.5029050;1.4376972;8
56.9620;-0.2322962;-0.4666490;-0.2042670;1.6155324;-0.0341502;0.1961251;8
57.0130;-0.7996255;0.2267010;0.0951013;0.1472192;-0.1950349;-1.3682288;8
57.0630;-1.7039870;1.5506233;0.1230963;0.6665218;-0.1937065;-0.2408972;8
57.1120;-0.6109858;0.1124541;-0.1398081;-0.3556916;-0.3623672;0.1489550;8
57.1630;-1.4800323;0.0107206;0.3535307;-0.1983007;-0.4866111;-0.5907066;8
57.2120;-0.6258974;-0.5311764;0.0118933;0.5251213;0.1444828;-1.2100522;8
57.2630;-1.0243288;-0.1335809;0.2512829;-0.4044148;0.3713119;-1.4465626;8
57.3130;-0.9441262;-0.1189896;0.0584787;-0.4255814;0.2909157;-1.7475123;8
57.3620;-0.9524328;-0.1451741;0.0663300;-1.0675663;0.3234449;-2.1238755;8
57.4130;-0.9775654;-0.1380775;0.1013361;-1.2888075;0.4719290;-1.8010304;8
57.4620;-1.0336906;-0.1547268;0.1923690;-1.3259566;0.6341578;-1.3230227;8
57.5130;-1.0901101;0.1828503;0.1737009;-0.7494945;0.3654737;-1.2282567;8
57.5630;-1.1194963;0.3194457;0.1522306;-1.1826331;0.1561037;-0.6305858;8
57.6120;-1.1451803;0.1935092;0.4664638;-0.8421626;0.2650374;0.3690977;8
57.6630;-1.4596957;0.2338493;0.4000529;0.7770073;0.0717387;1.5134918;8
57.7120;-1.4257131;0.0563113;-0.3176529;0.2239788;-0.3308696;3.0772251;8
57.7630;-1.4919225;-0.4595048;-0.0418990;0.0662786;-1.2401198;2.6426705;8
57.8130;-1.1228732;-0.1529726;0.0046507;1.8648060;-0.6661005;2.6870755;8
57.8620;-0.8245811;-0.1051023;-0.2041528;0.5162046;-0.3334458;2.1252830;8
57.9130;-0.6522738;-0.2725068;-0.0020107;0.2635579;-0.3998742;1.4492512;8
57.9620;-0.3693090;-0.3802712;-0.1687339;1.1233778;-0.2244997;0.4633609;8
58.0130;-0.5533155;-0.1991409;0.0809394;1.1550920;-0.1600219;-1.0417553;8
58.0630;-1.6127218;1.5613978;0.2327252;-0.7447251;0.0178359;-0.7043713;8
58.1120;-1.0255222;0.6827850;-0.2647586;0.7368335;-0.3981386;-0.3319141;8
58.1630;-1.4125651;-0.1254062;0.1926778;-0.5231554;-0.3586280;-0.3790523;8
58.2120;-0.3333431;-0.4356764;-0.0801319;0.2940047;-0.3335160;-1.0766962;8
58.2630;-1.2036517;-0.2915120;0.3429196;-0.6719914;0.3743902;-1.8517752;8
58.3130;-0.8667109;-0.2291604;0.0888479;-0.4324252;0.5332319;-1.9820877;8
58.3620;-1.1021961;-0.0912128;0.0748118;-1.4056229;0.3732874;-2.2373930;8
58.4130;-0.9538279;0.0160737;0.1386031;-1.3839150;0.5351243;-1.4470625;8
58.4620;-0.9288830;-0.2283635;0.2532939;-0.9534117;0.4680025;-1.2191661;8
58.5130;-1.0008807;-0.0340309;0.1437288;-0.7946408;0.4279059;-1.2018984;8
58.5630;-1.1128829;0.2145338;0.0078551;-0.7078118;0.2780987;-0.8934883;8
58.6120;-1.0985147;0.1792845;0.3166410;-1.2867662;0.3027145;-0.1170769;8
58.6630;-1.2310100;0.2455985;0.4098019;-0.0920927;0.1926132;0.5778267;8
58.7120;-1.4668492;0.3003927;0.0475563;0.3685686;0.0943075;2.4126092;8
58.7630;-1.4577162;-0.5065958;-0.0216126;-0.0199881;-1.1897532;2.7393460;8
58.8130;-1.4630304;-0.2808308;-0.0723436;1.6135216;-1.1864095;2.7035149;8
58.8620;-0.9995434;-0.1780660;-0.0769686;1.6764069;-0.5877567;2.5088926;8
58.9130;-0.7982701;-0.2607438;-0.0862123;0.6386685;-0.4966431;1.8700537;8
58.9620;-0.5009479;-0.4586971;-0.1611310;1.2216436;-0.3355396;1.0231015;8
59.0130;-0.2694883;-0.3498182;-0.1160223;1.2103195;-0.0620008;-0.3147444;8
59.0630;-1.1341323;0.8792794;0.1744358;-1.2709157;-0.0738744;-1.1114778;8
59.1120;-1.4746243;1.1302499;0.1166257;1.7624693;-0.2705815;-0.0907242;8
59.1630;-1.2350072;-0.3559166;-0.0157884;-0.6793916;-0.2093970;-0.0014704;8
59.2120;-0.5231881;-0.1503202;0.1702125;0.8798399;-0.3497742;-0.6008380;8
59.2630;-1.0764670;-0.3911291;0.1740799;-0.3003500;0.2050576;-1.5056472;8
59.3130;-0.9207271;-0.1223746;0.0167481;-0.1718749;0.3816383;-1.6154918;8
59.3620;-0.9955741;-0.0409660;0.0801737;-1.1925504;0.2211536;-1.9070419;8
59.4130;-0.9625015;-0.0996389;0.1102251;-1.6755628;0.2681556;-1.9640747;8
59.4620;-0.9814652;-0.1590865;0.2300487;-1.6931853;0.5302360;-1.1455665;8
59.5130;-1.0238929;-0.0348214;0.2289137;-0.6918883;0.4531201;-1.2329632;8
59.5630;-1.0628658;0.2071884;0.1155077;-1.1338686;0.3756171;-1.1858886;8
59.6120;-1.1288429;0.1712280;0.1985747;-0.9796452;0.4572747;-0.3999137;8
59.6630;-1.2574502;0.1553016;0.4231595;-0.5762710;0.3897466;0.1578636;8
59.7120;-1.5322566;0.3875101;0.0915521;0.4665594;0.1302955;1.8299955;8
59.7630;-1.2987301;-0.2095187;-0.1516010;-0.4525499;-0.4957799;2.9908141;8
59.8130;-1.3925585;-0.4161958;-0.0460193;0.6456443;-1.1044637;2.5247354;8
59.8620;-1.0280706;-0.1828004;-0.0502947;1.8550625;-0.6753701;2.5795927;8
59.9130;-0.8356761;-0.1955724;-0.0433190;0.8134700;-0.5969330;1.9823538;8
59.9620;-0.6560684;-0.3233176;-0.0399029;1.3372836;-0.6462327;1.2215381;8
60.0130;-0.3791912;-0.2839568;-0.2765773;1.1604191;-0.4057602;0.0551405;8
60.0630;-0.6748147;0.0473424;-0.0537039;-0.1202710;-0.3020638;-1.1455910;8
60.1120;-1.5370926;1.6206434;0.3289660;0.3770369;-0.0874165;-0.0216104;8
60.1630;-0.7589693;0.5062251;-0.0667620;0.2309121;-0.4375599;-0.1303680;8
60.2120;-1.4972849;-0.2586421;0.1956699;-0.6879590;-0.4926952;-0.6657714;8
60.2630;-0.3729777;-0.5450423;-0.1294669;0.7564700;0.0953361;-0.9360284;8
60.3130;-1.2280990;-0.2403217;0.4723092;-0.8438637;0.3294275;-1.8274109;8
60.3620;-0.8864321;-0.1753908;0.0658321;-0.0803529;0.4686821;-1.9836302;8
60.4130;-1.0601165;-0.0454998;-0.0021304;-0.9484287;0.3366530;-2.0452678;8
60.4620;-0.9658778;0.0111320;0.0384715;-1.6550881;0.3630906;-1.3907974;8
60.5130;-0.9638667;-0.2415141;0.2379716;-1.1541335;0.4543790;-1.0641690;8
60.5630;-0.9590318;-0.0080212;0.1732896;-1.2293993;0.3752508;-1.2434857;8
60.6120;-1.0768515;0.2667947;-0.0433057;-0.8289018;0.2501783;-0.7769107;8
60.6630;-1.1078086;0.0246763;0.3903852;-1.3609006;0.4817724;-0.0181928;8
60.7120;-1.3642664;0.2298981;0.5500515;0.2677542;0.2276079;0.6415722;8
60.7630;-1.4438415;0.2867994;-0.0826495;0.5125595;0.0116799;2.4450736;8
60.8130;-1.4056673;-0.4542396;-0.0997647;-0.1755937;-1.2328691;2.6947906;8
60.8620;-1.3741742;-0.2822937;-0.0197807;1.7181888;-1.0102807;2.7255433;8
60.9130;-0.9729887;-0.2040951;-0.1062914;1.4428146;-0.6232768;2.4155243;8
60.9620;-0.7823962;-0.3183297;-0.0137926;0.7326466;-0.5732208;1.8015706;8
61.0130;-0.4468340;-0.4383258;-0.2295760;1.5375429;-0.3025491;0.8450191;8
61.0630;-0.3457591;-0.2709554;-0.1097945;0.9177349;0.0316602;-0.6218212;8
61.1120;-1.3215861;1.2312311;0.2092212;-1.2728987;-0.0161888;-0.8784354;8
61.1630;-1.2170245;0.8473564;0.0474116;1.5710120;-0.3065895;0.0943916;8
61.2120;-1.2827892;-0.2134395;0.0086198;-0.9942257;-0.2818101;-0.3621968;8
61.2630;-0.3718497;-0.1908118;0.0831790;1.3776882;-0.6021199;-0.4381155;8
61.3130;-1.1550122;-0.2489622;0.1796510;-0.9455351;0.2494540;-1.5167070;8
61.3620;-0.8754244;-0.1217117;0.2343871;-0.6538817;0.4575747;-1.5338787;8
61.4130;-0.9962118;-0.1775092;0.0839133;-0.8807376;0.2864486;-1.7874488;8
61.4620;-1.0254612;-0.1331141;0.0595359;-1.2256249;0.4293081;-1.8922787;8
61.5130;-0.9190264;-0.2018539;0.1644719;-1.3764256;0.5676597;-1.4164423;8
61.5630;-0.9849898;-0.0641663;0.1973020;-0.8506090;0.6359313;-1.3015270;8
61.6120;-1.0604725;0.2017193;0.1387825;-1.0962390;0.4458062;-1.1911848;8
61.6630;-1.1106273;0.3265953;0.2593040;-1.0171424;0.3492185;-0.3758799;8
61.7120;-1.2875122;0.2719530;0.5412785;-0.4270698;0.2979747;0.5634361;8
61.7630;-1.4345832;0.2392979;-0.0231883;1.0256722;0.2043888;2.3823330;8
61.8130;-1.4605668;-0.3660587;-0.1605225;-0.2025260;-0.8785178;2.8432391;8
61.8620;-1.4396884;-0.3551213;0.0168615;1.1592561;-1.0904940;2.5039538;8
61.9130;-1.0040616;-0.1249673;-0.1703792;1.9709190;-0.5686188;2.5338042;8
61.9620;-0.8698696;-0.0838993;-0.1865205;0.3338962;-0.5204553;2.0341655;8
62.0130;-0.6073310;-0.2720111;-0.0351166;0.5070205;-0.4110163;1.2817290;8
62.0630;-0.4408959;-0.2477139;-0.1373336;0.8022705;-0.0822622;0.3957147;8
62.1120;-0.4791049;-0.1022120;-0.0038382;0.3808666;0.0298029;-1.1808038;8
62.1630;-1.6934604;1.5287168;0.3015576;0.0159158;0.0718885;-0.9023231;8
62.2120;-0.9233134;0.5861082;-0.2611407;-0.0107230;-0.4814135;-0.1830458;8
62.2630;-1.2387605;-0.3128174;0.3555265;0.0991225;-0.6137803;-0.3829488;8
62.3130;-0.5815846;-0.3888323;-0.0268902;0.2607372;-0.0079468;-1.1863455;8
62.3620;-1.0415432;-0.2382382;0.1678936;-0.2072198;0.3571684;-1.4679469;8
62.4130;-0.9425669;-0.0842238;0.0783479;-0.6228862;0.3448835;-1.8161264;8
62.4620;-0.9918419;-0.1289072;0.0497214;-1.6198253;0.2709543;-2.2592017;8
62.5130;-1.0036460;-0.1293259;0.1362612;-1.5836473;0.5904982;-1.6837491;8
62.5630;-0.9912778;-0.2034802;0.2969131;-1.0581925;0.5987401;-1.1598487;8
62.6120;-1.0881579;0.1110229;0.1576510;-0.8788897;0.4505381;-1.2994049;8
62.6630;-1.1657471;0.3248806;0.0805019;-0.9486803;0.2627656;-0.7158210;8
62.7120;-1.1048098;0.1402785;0.4000264;-1.1848223;0.4466488;0.2234612;8
62.7630;-1.3326980;0.2801900;0.4324184;0.3775212;0.1979586;1.1140155;8
62.8130;-1.4232424;0.1802824;-0.1583478;0.0625863;-0.1756165;2.7670727;8
62.8620;-1.5298854;-0.4887021;-0.0755894;0.0025623;-1.3155495;2.6164264;8
62.9130;-1.3000615;-0.2304476;-0.0469760;1.7832585;-1.0156994;2.6806243;8
62.9620;-0.8660036;-0.2030541;-0.1613427;1.0612212;-0.7372324;2.2222883;8
63.0130;-0.7320614;-0.3033164;-0.0244456;0.6942467;-0.6467500;1.6623535;8
63.0630;-0.3529095;-0.4448586;-0.2175187;1.5544922;-0.3232905;0.6892240;8
63.1120;-0.4411241;-0.2663973;-0.0879384;1.2133350;-0.0271528;-0.9493035;8
63.1630;-1.6140302;1.5164636;0.1839619;-0.9002405;0.0156840;-0.7345330;8
63.2120;-0.9276821;0.6207942;-0.0362646;0.7672607;-0.5368722;0.1853059;8
63.2630;-1.3459651;-0.4081241;0.3955212;-0.4149974;-0.5928979;-0.6181661;8
63.3130;-0.4805607;-0.2117532;-0.2807850;1.2153491;0.0570846;-0.5646964;8
63.3620;-1.1799655;-0.2659612;0.3242173;-0.7840794;0.1320314;-1.7040940;8
63.4130;-0.8184860;-0.0839631;0.2667056;-0.4763894;0.3553024;-1.8519543;8
63.4620;-1.0170123;-0.1249879;0.0293535;-0.7496647;0.2818600;-2.1041915;8
63.5130;-1.0108449;-0.0722647;-0.0468589;-1.5620156;0.4441742;-1.8701093;8
63.5630;-0.9777256;-0.2583483;0.1397511;-1.4961449;0.5461613;-1.2312781;8
63.6120;-1.0933703;0.1242340;0.2735844;-0.8408441;0.5017739;-1.2818167;8
63.6630;-1.0472414;0.3359873;0.1906623;-1.1590389;0.2544317;-0.8109965;8
63.7120;-1.1424657;0.1258407;0.4248510;-0.8245578;0.4129090;0.1881523;8
63.7630;-1.4546973;0.2697528;0.2850866;0.6179191;0.2085452;1.2193444;8
63.8130;-1.4317752;0.1828910;-0.2837186;-0.0961084;-0.1011167;2.9769995;8
63.8620;-1.5242649;-0.4988224;-0.0150348;-0.4582256;-1.1936405;2.7161404;8
63.9130;-1.2023539;-0.2028284;-0.0180434;1.6622986;-0.8731095;2.6438456;8
63.9620;-0.9148960;-0.1387555;-0.1308730;0.8879583;-0.5641684;2.1616826;8
64.0130;-0.6883871;-0.2940149;-0.0157192;0.4938197;-0.5325781;1.4575882;8
64.0630;-0.3573534;-0.3769469;-0.2121406;1.5841650;-0.2970889;0.4484168;8
64.1130;-0.5030694;-0.1463664;-0.0296554;1.0698383;-0.1920103;-0.9454993;8
64.1620;-1.4860231;1.4859214;0.2952614;-1.1829304;-0.0754587;-0.1855365;8
64.2130;-1.0130091;0.7178416;-0.0894314;1.6619253;-0.3060490;-0.0107389;8
64.2630;-1.1813950;0.0887120;-0.1008303;-1.1987901;-0.4865350;-0.6428081;8
64.3130;-0.6294389;-0.1450138;0.2431623;1.6470043;-0.5586579;-0.4933673;8
64.3630;-1.0828129;-0.4653583;0.1458427;-1.0816961;0.2833212;-1.6543575;8
64.4120;-0.9062245;-0.2710698;0.2747820;-0.3815110;0.3581941;-1.8494964;8
64.4630;-1.0256992;-0.1991358;0.0003283;-0.5584314;0.4188159;-1.8933008;8
64.5130;-1.0196321;-0.0597266;-0.0167464;-1.0720401;0.2860380;-1.8873605;8
64.5630;-0.8859998;-0.1557029;0.2073279;-1.8012008;0.4124355;-1.4179257;8
64.6130;-0.9695645;-0.1213054;0.2921625;-1.2257232;0.5906500;-1.3117038;8
64.6620;-1.0411610;0.1289777;0.0787739;-1.0967665;0.4607416;-1.1028803;8
64.7130;-1.1861359;0.2446523;0.2389672;-1.0795558;0.3417762;-0.4184257;8
64.7630;-1.1814126;0.1937930;0.4560523;-0.6817033;0.4453229;0.1947554;8
64.8130;-1.4574942;0.4412930;0.2863224;0.4850591;0.1996792;1.5154205;8
64.8630;-1.4075589;-0.1551076;-0.1491186;-0.1701943;-0.5491197;3.0013410;8
64.9120;-1.5717781;-0.4186955;-0.1593467;0.4853522;-1.4437756;2.6922953;8
64.9630;-1.1730409;-0.1953257;0.0528077;1.6023355;-0.9223854;2.6763912;8
65.0130;-0.8677403;-0.2354153;-0.0803473;0.8817953;-0.8000894;2.0190090;8
65.0630;-0.6442206;-0.4226048;-0.0926638;1.2188912;-0.5612101;1.3839404;8
65.1130;-0.2814211;-0.4296092;-0.2975870;1.7606995;-0.1048531;0.4774410;8
65.1620;-0.7138345;-0.0013497;0.0235938;0.7506274;-0.0364629;-1.1982763;8
65.2130;-1.5749091;1.6434384;0.1619952;-0.1347964;0.0060544;-0.5378433;8
65.2630;-0.8089143;0.2688299;-0.0304843;0.2326504;-0.3763641;-0.0978328;8
65.3130;-1.3405517;-0.2101943;0.3365218;-0.2626567;-0.5008836;-0.3784774;8
65.3630;-0.6766303;-0.3768810;-0.0705951;1.0350659;0.0623927;-1.0659417;8
65.4120;-1.0060961;-0.1473760;0.1117251;-0.3654198;0.2597530;-1.2873946;8
65.4630;-0.9732658;-0.1845400;0.1564786;-0.6011260;0.2175781;-1.8003660;8
65.5130;-0.9718058;-0.1628683;0.0270282;-1.3207060;0.2505599;-2.2416122;8
65.5630;-0.9945078;-0.1217015;0.1137534;-1.6459293;0.4408668;-1.9428330;8
65.6130;-0.9825397;-0.1034655;0.2966343;-1.5580262;0.6104049;-1.2360617;8
65.6620;-1.0824177;0.0948162;0.2186974;-0.7476378;0.4763865;-1.2220316;8
65.7130;-1.1386914;0.2361830;0.1171103;-1.0254493;0.3303692;-0.7578919;8
65.7630;-1.1504921;0.1033044;0.3218636;-0.9296442;0.4216504;0.1359518;8
65.8130;-1.3902726;0.3344330;0.3791762;0.1883531;0.1347654;1.0333451;8
65.8630;-1.3420620;0.2921263;-0.2508863;-0.1840898;0.0800143;2.8872484;8
65.9120;-1.4397236;-0.5540893;0.0395999;-0.4258585;-1.3093620;2.5364913;8
65.9630;-1.3205090;-0.2400031;-0.0177796;1.8760685;-1.0526540;2.6054688;8
66.0130;-0.9447340;-0.1482153;-0.1056026;1.4245415;-0.7625743;2.2402913;8
66.0630;-0.7941017;-0.2502093;-0.0425213;0.8878416;-0.6274655;1.7559725;8
66.1130;-0.4718370;-0.3775792;-0.1699535;1.5273066;-0.4523903;0.9284791;8
66.1620;-0.2909131;-0.3028854;-0.1742365;0.9650720;-0.1570444;-0.7332103;8
66.2130;-1.3086274;1.1277499;0.1518511;-0.9917423;0.0235609;-1.1667223;8
66.2630;-1.3464588;0.9992251;-0.0480556;1.8206718;-0.3377422;0.0447570;8
66.3130;-1.1756201;-0.2814893;-0.0263263;-1.4630822;-0.3696110;-0.4016272;8
66.3630;-0.6927163;-0.0410337;0.3414327;1.5269422;-0.3963789;-0.4429333;8
66.4120;-0.9742116;-0.4433441;0.0885420;-0.8120606;0.2206764;-1.6159689;8
66.4630;-0.9117499;-0.1864178;0.1779207;-0.4497485;0.3499347;-1.8839708;8
66.5130;-0.9722704;-0.1265257;0.0620717;-0.9458674;0.2629829;-2.0257872;8
66.5630;-1.0203163;-0.0894257;0.0305887;-1.4259854;0.3520307;-1.9922934;8
66.6130;-0.9733083;-0.1996476;0.1765289;-1.5492075;0.5857980;-1.2116115;8
66.6620;-1.0865256;-0.0470840;0.2310292;-0.8217618;0.4602547;-1.3422166;8
66.7130;-1.0989202;0.2725960;0.0992351;-1.0633615;0.2519831;-1.1334148;8
66.7630;-1.1338442;0.2244238;0.3128275;-1.2466718;0.3721438;-0.0831857;8
66.8130;-1.2083523;0.1648798;0.4558562;-0.2462696;0.2805975;0.5038141;8
66.8630;-1.4304677;0.3910663;-0.0176273;0.4915974;0.0896447;2.1589434;8
66.9120;-1.3753631;-0.4128899;-0.0524781;-0.3944872;-1.0245754;2.8105960;8
66.9630;-1.5113069;-0.2909782;-0.1511289;1.2897620;-1.1432780;2.7746333;8
67.0130;-1.0431546;-0.1806512;-0.0735986;1.2816583;-0.6793888;2.6385282;8
67.0630;-0.8263004;-0.2412066;-0.0529614;0.3358549;-0.5482840;1.9763455;8
67.1130;-0.4919244;-0.4298256;-0.0950788;0.9515830;-0.4412094;1.0441864;8
67.1620;-0.1901375;-0.4309266;-0.1414531;1.4758976;0.0233957;-0.4226230;8
67.2130;-1.2422102;0.8427673;0.1163771;-0.5116031;0.0368877;-1.1629870;8
67.2630;-1.4024402;1.1248588;0.0666893;1.4998170;-0.3711599;-0.1211715;8
67.3130;-1.2344386;-0.3071191;-0.0692493;-0.8327048;-0.4454202;0.0926749;8
67.3630;-0.5192819;-0.2451290;0.2175341;0.8384117;-0.2006630;-0.7907313;8
67.4120;-1.0605429;-0.3248213;0.1682484;-0.1161582;0.2620000;-1.2646314;8
67.4630;-0.9329363;-0.0985894;0.1082214;-0.1515080;0.3491563;-1.6623296;8
67.5130;-0.9675095;-0.1014838;0.0487458;-1.1009796;0.2290925;-2.1055474;8
67.5630;-0.9894069;-0.1071892;0.0978126;-1.6749726;0.3584474;-2.2269465;8
67.6130;-0.9792970;-0.1573301;0.2439527;-1.8020265;0.6967829;-1.4191543;8
67.6620;-1.0900992;-0.0324464;0.2256517;-0.8157566;0.6450402;-1.3009131;8
67.7130;-1.1242803;0.2646898;0.1432363;-0.8922965;0.3506533;-1.0436205;8
67.7630;-1.1415519;0.2505287;0.2679487;-1.0983077;0.4091122;-0.0773208;8
67.8130;-1.2908398;0.2838182;0.4769885;-0.2506847;0.2626948;0.7729597;8
67.8630;-1.4118525;0.3414352;-0.0558941;0.4171359;0.1039060;2.6634999;8
67.9120;-1.4775708;-0.5413797;-0.0098899;-0.2106991;-1.3493773;2.6655397;8
67.9630;-1.4758854;-0.2318140;-0.1427507;1.6716344;-1.2370237;2.7470398;8
68.0130;-0.9490005;-0.1364348;-0.1754931;1.4017563;-0.7029603;2.4522533;8
68.0630;-0.7361250;-0.2048151;-0.1374757;0.4232637;-0.4850164;1.8790271;8
68.1130;-0.4747345;-0.3700823;-0.1065851;0.9885578;-0.3707024;1.1180572;8
68.1620;-0.2743424;-0.3902445;-0.1129815;1.2564152;-0.0726904;-0.3382905;8
68.2130;-1.1957583;0.8451247;0.1632248;-0.8276409;-0.0875158;-1.3107749;8
68.2630;-1.4900020;1.1699147;0.0271699;1.7198214;-0.3421791;-0.4227190;8
68.3130;-1.2021431;0.0547031;-0.2261184;-1.2107678;-0.3438300;-0.4256454;8
68.3630;-0.6285878;-0.1492119;0.3647085;1.0987198;-0.5581195;-0.4142029;8
68.4120;-0.9619896;-0.5048457;0.0396893;-0.7902764;0.2408399;-1.5115936;8
68.4630;-0.9197512;-0.1863173;0.2594372;-0.4619969;0.4489409;-1.7763866;8
68.5130;-0.9602935;-0.1567594;0.1015537;-0.7256933;0.4194515;-1.8499342;8
68.5630;-1.0245588;-0.0870229;-0.0154283;-1.1773620;0.4179936;-1.9992185;8
68.6130;-0.9434762;-0.1851533;0.2143755;-1.2680564;0.5790695;-1.3206054;8
68.6620;-1.0663175;-0.0605037;0.2264895;-0.6266934;0.5054886;-1.3270936;8
68.7130;-1.0278209;0.2373810;0.0200893;-1.0541185;0.3052924;-1.1935544;8
68.7630;-1.1372804;0.2100378;0.2515056;-1.1467159;0.3627753;-0.2492314;8
68.8130;-1.1652825;0.1531054;0.5107304;-0.4084952;0.3827170;0.3025488;8
68.8630;-1.5213803;0.4267181;0.1569758;0.6829981;0.0849659;1.8382857;8
68.9120;-1.3619744;-0.2572305;-0.2466500;-0.2470265;-0.7685835;3.0802319;8
68.9630;-1.5557284;-0.3308398;-0.1568792;0.4731455;-1.2572492;2.8403816;8
69.0130;-1.0975551;-0.2231374;0.0785513;1.5292327;-0.7927599;2.6642969;8
69.0630;-0.8720318;-0.2527682;-0.0372866;0.6426811;-0.6482222;2.0065204;8
69.1130;-0.5401114;-0.4600076;-0.1292678;1.2778871;-0.5487804;1.0944935;8
69.1620;-0.1919053;-0.4040916;-0.2127576;1.6830073;-0.0663358;-0.2933863;8
69.2130;-1.0390963;0.6705506;0.0286302;-0.4083823;-0.0927372;-1.4901357;8
69.2630;-1.4809549;1.2915100;0.0948851;1.5090165;-0.0653584;-0.3899163;8
69.3130;-1.0442034;-0.0219199;-0.2131313;-0.7304286;-0.3587398;-0.1820391;8
69.3630;-0.9053409;-0.1089818;0.5733454;1.1256487;-0.5306517;-0.2865384;8
69.4120;-0.8971458;-0.5361480;0.0168845;0.0319810;0.1725912;-1.2576411;8
69.4630;-0.9007787;-0.2571667;0.1398562;-0.4565312;0.2019466;-1.7464918;8
69.5130;-0.9965839;-0.1670364;0.0048037;-0.9344156;0.2838262;-1.8954403;8
69.5630;-1.0190368;-0.1528280;0.0577840;-1.6628603;0.3318943;-2.0849809;8
69.6130;-0.9722777;-0.1612517;0.1997919;-1.7796214;0.5766183;-1.4840227;8
69.6620;-1.0430076;-0.0105832;0.2096361;-0.9236825;0.5109205;-1.2216913;8
69.7130;-1.0952401;0.2180070;0.1507963;-1.2117372;0.2455424;-0.9932651;8
69.7630;-1.1240373;0.2548629;0.2271737;-1.1931048;0.2706351;-0.0934882;8
69.8130;-1.3011584;0.1675337;0.5577829;-0.2084785;0.2478361;0.6518142;8
69.8630;-1.3419597;0.4154851;-0.1201823;0.8571075;0.2282906;2.3692226;8
69.9120;-1.4216099;-0.3881892;0.0094243;-0.6227963;-0.9727510;2.9158312;8
69.9630;-1.4897655;-0.2953270;-0.0446239;1.3158495;-1.2083530;2.6289362;8
70.0130;-1.0069084;-0.1039988;-0.0937464;1.6822634;-0.7008071;2.4800447;8
70.0630;-0.7985781;-0.1305332;-0.1736269;0.4138546;-0.4536176;1.8962951;8
70.1130;-0.5455954;-0.2880731;-0.0494974;0.7949254;-0.4238700;1.2050783;8
70.1620;-0.2914506;-0.3562194;-0.2321033;1.0679968;-0.1642856;0.0291347;8
70.2130;-0.9177373;0.4782624;0.1966868;-0.7831154;-0.1132483;-1.3067209;8
70.2630;-1.5271579;1.4026991;0.1604666;1.5830936;-0.2013902;-0.6897942;8
70.3130;-1.4706629;0.3421682;-0.3263237;-0.9245911;-0.2577106;-0.0108125;8
70.3630;-0.2189014;-0.5384725;0.2257420;0.0561763;-0.3249695;-0.6858091;8
70.4120;-1.1569419;-0.4050261;0.3973790;-0.0772708;0.2129612;-1.5362824;8
70.4630;-0.8789799;-0.0494475;0.0293058;-0.0015862;0.5163682;-1.6996303;8
70.5130;-0.9865905;-0.1064150;-0.0281230;-1.0707500;0.2521114;-2.2156871;8
70.5630;-0.9653029;-0.1013431;0.0880732;-1.6972495;0.3861724;-2.2537442;8
70.6130;-0.9587134;-0.2460240;0.2839215;-1.7929848;0.6718017;-1.2975792;8
70.6620;-1.0667828;-0.0621043;0.2571576;-0.4066849;0.5609799;-1.2987978;8
70.7130;-1.1199591;0.2019328;0.0577582;-0.8085029;0.3369358;-1.1605299;8
70.7630;-1.1732701;0.2899082;0.1999063;-1.0496654;0.2954861;-0.2458287;8
70.8130;-1.2181681;0.2003692;0.5017363;-0.7532129;0.2940010;0.5740257;8
70.8630;-1.3777920;0.3801889;0.1201749;0.8424274;0.0562445;2.2273382;8
70.9120;-1.4622157;-0.4264255;-0.0516606;-0.3424708;-1.0177411;2.8764977;8
70.9630;-1.5383508;-0.3041136;-0.1215532;1.3526027;-1.2671320;2.6940449;8
71.0130;-1.0660377;-0.1400292;-0.0946924;1.7542081;-0.7420703;2.6609368;8
71.0630;-0.8286625;-0.1870162;-0.1470009;0.6101359;-0.5368291;2.0286660;8
71.1130;-0.5573206;-0.3701308;-0.0903785;0.7419528;-0.4001200;1.2767848;8
71.1620;-0.2180345;-0.3630937;-0.2209266;1.2125370;0.0278362;0.0696434;8
71.2130;-0.8773362;0.2938175;0.1437438;-0.0510759;0.0373124;-1.5231887;8
71.2630;-1.6891438;1.5543393;0.2749954;0.8982207;-0.2752870;-0.6369182;8
71.3130;-0.7964029;-0.0082569;-0.1296150;-0.3426234;-0.3811642;-0.1921524;8
71.3630;-1.2201393;0.0474901;0.3692517;0.4585602;-0.3960061;-0.4317713;8
71.4120;-0.6244864;-0.7538514;-0.0576641;-0.1018468;0.0535050;-1.8453436;8
71.4630;-1.0050858;-0.2537403;0.3385977;-0.3914578;0.2831962;-1.8877268;8
71.5130;-0.9765290;-0.1563268;-0.0884315;-0.7309632;0.5253648;-1.9939191;8
71.5630;-1.0831042;-0.1033433;-0.0470637;-1.5672858;0.5089255;-1.9280327;8
71.6130;-0.9518042;-0.1675421;0.2808055;-1.6817451;0.6066664;-1.1774503;8
71.6620;-1.0326806;-0.0678049;0.2771060;-0.9158995;0.5185198;-1.2761333;8
71.7130;-1.0960083;0.1686260;0.0408837;-0.8617770;0.3665908;-1.1256364;8
71.7630;-1.0808238;0.2593359;0.2430062;-1.2035014;0.2139692;-0.2638320;8
71.8130;-1.2180060;0.1820150;0.5435468;-0.3492319;0.1873187;0.6232494;8
71.8630;-1.4800598;0.2953933;-0.0358829;0.7142515;-0.0339066;2.2376037;8
71.9120;-1.3967314;-0.3014192;-0.2501528;-0.6457448;-0.9143622;2.9789992;8
71.9630;-1.5126052;-0.3497571;-0.0631382;0.6865852;-1.2521964;2.6419889;8
72.0130;-1.0511855;-0.2029985;-0.0146841;1.5423463;-0.8549394;2.4870334;8
72.0630;-0.8261658;-0.2367653;-0.0046551;0.7905904;-0.7931720;1.7623576;8
72.1130;-0.4915887;-0.3956555;-0.1077410;1.5912074;-0.6743227;0.8357959;8
72.1620;-0.2848850;-0.3489120;-0.3220578;1.6097725;-0.1178048;-0.4367802;8
72.2130;-1.0018251;0.6124392;0.0016950;-0.5282382;-0.0710798;-0.9171022;8
72.2630;-1.5347668;1.4473582;0.2477610;1.4579229;-0.1122320;0.2631366;8
72.3130;-1.0194818;0.1954520;-0.1893873;-1.3139910;-0.4786887;-0.4129215;8
72.3630;-0.8857530;-0.2397047;0.5701025;1.3076367;-0.5578807;-0.2149998;8
72.4120;-0.9009580;-0.5559772;-0.0884974;-0.2674667;0.1860958;-1.6215628;8
72.4630;-0.9072657;-0.1928893;0.2727337;-0.4584045;0.4111929;-1.7007357;8
72.5130;-1.0245629;-0.1479404;0.0033635;-0.5400676;0.3643625;-1.8853473;8
72.5630;-1.0843386;-0.0822243;0.0452712;-1.2753873;0.3413110;-1.9736972;8
72.6130;-0.9118367;-0.1640898;0.1716791;-1.5195089;0.4170290;-1.4102988;8
72.6620;-1.0051284;-0.0777899;0.2165634;-0.9703625;0.5102408;-1.2911155;8
72.7130;-0.9765046;0.1821515;0.0307849;-1.2470980;0.3495244;-1.2194439;8
72.7630;-1.0854866;0.1709702;0.2203910;-1.3096966;0.4186631;-0.4168302;8
72.8130;-1.1455863;0.1234924;0.5392669;-0.3450736;0.3023947;0.2341198;8
72.8630;-1.5230829;0.3588136;0.0722416;0.7245198;0.1019218;1.5869152;8
72.9120;-1.3513589;-0.1020733;-0.2655278;-0.7508741;-0.4741098;2.8769062;8
72.9630;-1.5461887;-0.4221039;-0.0150357;0.2213267;-1.2049674;2.5847129;8
73.0130;-1.1347159;-0.1776038;-0.0019713;1.8592567;-0.7082404;2.6394165;8
73.0630;-0.9112045;-0.1894630;-0.0349327;0.8657762;-0.5517652;2.0491193;8
73.1130;-0.6504177;-0.3846599;-0.1130865;1.1099230;-0.3868093;1.2874573;8
73.1620;-0.2063326;-0.3796059;-0.3382958;1.0855286;0.1651099;0.0617631;8
73.2130;-0.7965246;0.1297520;0.1073156;-0.1412659;0.0391400;-1.4825200;8
73.2630;-1.6931265;1.6204624;0.2547361;0.6042606;-0.3489282;-0.1484380;8
73.3130;-0.8808487;0.0037534;-0.0622097;-0.0871839;-0.3454348;-0.2476941;8
73.3630;-1.0191057;0.0057618;0.2221929;0.5222951;-0.5829127;-0.1537887;8
73.4120;-0.7684647;-0.7074221;0.0445590;-0.0936316;0.0732121;-1.7748075;8
73.4630;-0.9711414;-0.2416673;0.2623143;-0.6219430;0.4422846;-1.7211000;8
73.5130;-1.0344688;-0.2041335;0.1018098;-0.7600494;0.4710941;-2.0320623;8
73.5630;-1.0810070;-0.0612165;-0.0599730;-1.4300193;0.5459034;-1.9409572;8
73.6130;-0.9330812;-0.1532351;0.1863584;-1.0885194;0.6166936;-1.1721226;8
73.6620;-1.0085329;-0.0669107;0.2560873;-0.8003935;0.4488048;-1.1578470;8
73.7130;-1.0430841;0.1669134;0.0434842;-0.9112510;0.2988008;-1.0290370;8
73.7630;-1.0787639;0.2294508;0.2395696;-1.2460771;0.2480222;-0.2187563;8
73.8130;-1.1656636;0.1839078;0.5000595;-0.3729132;0.2589019;0.5284760;8
73.8630;-1.5019764;0.3961803;0.0417366;0.7121695;0.0009959;2.0632782;8
73.9120;-1.3863186;-0.2834491;-0.1385367;-0.5732010;-0.9939896;2.9476657;8
73.9630;-1.5657673;-0.3315187;-0.1475771;0.9144964;-1.3190724;2.6861481;8
74.0130;-1.0655398;-0.1762362;-0.0630090;1.5401564;-0.8278605;2.5890840;8
74.0630;-0.8597991;-0.2068065;-0.0527298;0.6741524;-0.7160940;1.8318226;8
74.1130;-0.5072416;-0.4029155;-0.0910181;1.2147203;-0.5478291;0.9292411;8
74.1620;-0.2128515;-0.4255697;-0.1941749;1.7633819;-0.1098309;-0.4569566;8
74.2130;-1.1242154;0.6747911;0.0033760;-0.5144960;-0.0091640;-1.4332322;8
74.2630;-1.4798623;1.2692131;0.0412931;1.4841870;-0.1452238;0.1188244;8
74.3130;-1.1914452;-0.2908923;-0.0908031;-1.3974994;-0.4347683;-0.0312919;8
74.3630;-0.6057681;-0.2228832;0.2947700;0.6992559;-0.1897360;-0.5976089;8
74.4120;-1.0307897;-0.4531654;0.1897632;-0.3124198;0.3341158;-1.5511916;8
74.4630;-0.9440718;-0.1271468;0.1220087;-0.1391651;0.3935207;-1.8176292;8
74.5130;-1.0220122;-0.1000065;0.0322226;-1.1896481;0.2803930;-2.1172737;8
74.5630;-1.0005474;-0.0892001;0.0627403;-1.5270429;0.4676750;-1.9008726;8
74.6130;-0.9531538;-0.2034983;0.2376759;-1.4354251;0.6693242;-1.2021301;8
74.6620;-1.0472241;0.0069991;0.2623292;-0.7255065;0.5222200;-1.3638945;8
74.7130;-1.1111530;0.3135374;0.0795466;-0.8123169;0.3008512;-1.1097045;8
74.7630;-1.1281179;0.2274687;0.3339788;-1.0519639;0.4199007;-0.0294300;8
74.8130;-1.3844870;0.1610199;0.5515473;0.0852539;0.2175696;0.7599830;8
74.8630;-1.3614523;0.4629932;-0.3644383;0.6938621;0.0501264;2.6803005;8
74.9120;-1.3657369;-0.5129208;-0.1201470;-1.0920010;-1.1522465;2.7603058;8
74.9630;-1.4006720;-0.2589175;-0.0023533;1.4336767;-0.9894674;2.7779952;8
75.0130;-1.0373661;-0.1668877;-0.0841229;1.2748553;-0.7309811;2.4668623;8
75.0630;-0.8478873;-0.2419006;-0.0036181;0.5685705;-0.7123706;1.6600774;8
75.1130;-0.4356279;-0.3998846;-0.1841071;1.2612297;-0.6037896;0.6451080;8
75.1620;-0.2804509;-0.3346642;-0.1157998;1.1290828;-0.2432099;-0.7919838;8
75.2130;-1.3485795;1.1849840;0.1598353;-0.7604641;-0.0378907;-0.6910641;8
75.2630;-1.1405114;0.8500852;-0.0758055;1.3954797;-0.3034122;-0.1383692;8
75.3130;-1.2965558;-0.3718276;0.1240932;-0.8080861;-0.6495980;-0.2497923;8
75.3630;-0.6038091;-0.2779063;0.1367923;0.9330686;0.1014082;-0.7687578;8
75.4120;-1.0650971;-0.2566771;0.2795438;-0.1340894;0.2598885;-1.5407848;8
75.4630;-0.9691286;-0.1204843;0.1149916;-0.1718093;0.3057998;-1.7975588;8
75.5130;-1.0382733;-0.1006329;0.0170973;-1.0797884;0.2384242;-2.1556747;8
75.5630;-0.9915233;-0.0877489;0.1246424;-1.4818692;0.4152235;-1.7637874;8
75.6130;-0.9410032;-0.1430106;0.1610442;-1.5537645;0.6131408;-1.3381551;8
75.6620;-1.0317257;0.0667247;0.1514568;-1.0219650;0.4891984;-1.3504673;8
75.7130;-1.0480825;0.2946220;0.1494855;-1.2660630;0.3234127;-0.7856972;8
75.7630;-1.1046613;0.0523669;0.4242957;-0.9821595;0.4778203;0.0491044;8
75.8130;-1.4295091;0.2541084;0.4251462;0.5596063;0.1833015;0.8939031;8
75.8630;-1.4105070;0.3761724;-0.3010895;0.2059707;0.0683635;2.7619916;8
75.9120;-1.4793555;-0.5583924;0.0275675;-0.5416670;-1.2161726;2.5727584;8
75.9630;-1.3399278;-0.2322041;-0.0988920;1.9785306;-0.8692875;2.7841747;8
76.0130;-0.9510327;-0.1538344;-0.1650943;1.0317081;-0.6188319;2.3335154;8
76.0630;-0.7649143;-0.2857644;0.0336061;0.4593495;-0.5568819;1.6773630;8
76.1130;-0.3650922;-0.4048970;-0.2097638;1.1422048;-0.3892408;0.6703650;8
76.1620;-0.3554930;-0.2988605;-0.0598288;1.0696122;-0.1009493;-0.8731254;8
76.2130;-1.4664360;1.2864629;0.2350668;-0.5741861;-0.0577773;-0.5187978;8
76.2630;-1.0686688;0.8141307;-0.1464494;1.2093393;-0.3738292;-0.1327292;8
76.3130;-1.2817246;-0.2824881;-0.0045960;-0.9251266;-0.5075174;-0.5456584;8
76.3630;-0.5958423;-0.2840740;0.1737944;1.1133768;-0.1249287;-0.7470495;8
76.4120;-1.0739625;-0.3996430;0.3915120;-0.3897042;0.2298393;-1.7360711;8
76.4630;-0.9388314;-0.1262609;0.0349675;-0.0809698;0.3923999;-1.9354172;8
76.5130;-1.0534422;-0.1306345;0.0027630;-1.2544688;0.1728873;-2.2988466;8
76.5630;-0.9899582;-0.0485070;0.1164566;-1.6860095;0.4404606;-1.6506248;8
76.6130;-0.9536546;-0.2077535;0.1511035;-1.3193287;0.6104746;-1.1921271;8
76.6620;-1.0273487;0.0612128;0.1846294;-1.1035371;0.4187731;-1.3445334;8
76.7130;-1.0828374;0.2467331;0.1014971;-1.0906205;0.3027240;-0.7287509;8
76.7630;-1.1141502;0.0780929;0.4129191;-1.0983670;0.4042646;0.0654663;8
76.8130;-1.3729185;0.2952868;0.4252764;0.1814565;0.0767650;1.0166879;8
76.8630;-1.3760396;0.2470277;-0.2769106;0.0678361;-0.1436431;2.7441541;8
76.9120;-1.5040474;-0.4642090;-0.0943069;-0.5543187;-1.2442080;2.5826298;8
76.9630;-1.3367092;-0.2500779;-0.0176092;1.6706432;-0.9546727;2.6908450;8
77.0130;-0.9211251;-0.1865051;-0.0932955;1.3764596;-0.6682669;2.2559560;8
77.0630;-0.7747855;-0.2990564;-0.0082527;0.7424018;-0.6491129;1.6354847;8
77.1130;-0.3657599;-0.4030222;-0.2304429;1.2967717;-0.4523599;0.6091833;8
77.1620;-0.3726903;-0.3145393;-0.0993738;1.2045373;-0.0241918;-1.0030460;8
77.2130;-1.5457904;1.3608253;0.1774995;-0.5695144;0.1119830;-0.6159707;8
77.2630;-1.0347092;0.6439367;-0.1965407;0.9218808;-0.5330460;-0.1378828;8
77.3130;-1.3175894;-0.3962609;0.2372126;-0.7192574;-0.5015167;-0.0960857;8
77.3630;-0.4509533;-0.2946327;0.0458044;0.5302683;0.0130383;-0.9594578;8
77.4120;-1.1476597;-0.2392427;0.3119588;-0.1788115;0.2937634;-1.3633860;8
77.4630;-0.9598211;-0.1238229;0.1030139;-0.0282777;0.2707235;-1.7965281;8
77.5130;-1.0617540;-0.1680589;0.0164605;-1.0644152;0.1796654;-2.2087088;8
77.5630;-0.9729212;-0.1031306;0.0509196;-1.3884308;0.4524317;-1.8236381;8
77.6130;-0.9694264;-0.1785761;0.1971469;-1.3728730;0.6612608;-1.3835489;8
77.6620;-1.0150135;0.1278071;0.2085309;-1.0064426;0.4348956;-1.3570452;8
77.7130;-1.1104591;0.3248840;0.1261777;-1.1665807;0.2875101;-0.7136169;8
77.7630;-1.1365474;0.0966301;0.4581228;-0.9485905;0.4214222;0.1428369;8
77.8130;-1.4621361;0.2403197;0.4288906;0.6166631;0.0648007;1.0615464;8
77.8630;-1.3754593;0.2639775;-0.3984318;0.0648726;-0.0308460;2.9325379;8
77.9120;-1.5160762;-0.5314267;-0.0507022;-0.3265628;-1.2057277;2.7113685;8
77.9630;-1.2648744;-0.2286424;-0.0320122;1.8506857;-0.7482116;2.8423167;8
78.0130;-0.8811085;-0.1765370;-0.0497668;0.7056868;-0.5534168;2.2962480;8
78.0630;-0.7237092;-0.3067359;0.0077982;0.4165948;-0.5858742;1.5228096;8
78.1130;-0.2976436;-0.4287751;-0.2358528;1.3726833;-0.4177036;0.3860409;8
78.1620;-0.4927697;-0.2790425;-0.0676810;1.2995947;-0.0627188;-1.1876384;8
78.2130;-1.6687356;1.5941764;0.2148665;-0.2921713;0.0606488;-0.3102874;8
78.2630;-0.8417929;0.4793253;-0.2371611;0.0673498;-0.5197255;-0.2522776;8
78.3130;-1.2753697;-0.3800666;0.2575495;-0.5090686;-0.5733754;-0.4314881;8
78.3630;-0.6876921;-0.3046117;0.0195172;0.8233857;0.1445926;-1.0515811;8
78.4120;-1.0444475;-0.2457648;0.3137115;-0.5181206;0.2924179;-1.7426526;8
78.4630;-0.9280532;-0.2137434;0.1828607;-0.3762623;0.3730640;-1.9622018;8
78.5130;-1.0993754;-0.0758295;-0.0527799;-1.1087369;0.3565727;-2.0056127;8
78.5630;-0.9763671;-0.0126324;0.0421260;-1.2596145;0.4853986;-1.2727019;8
78.6130;-0.9894318;-0.2686973;0.2209803;-1.1108247;0.5343501;-1.2302845;8
78.6620;-0.9850260;0.1356891;0.1871230;-1.0384628;0.4037057;-1.2787586;8
78.7130;-1.0547098;0.2509002;0.0364648;-0.9213851;0.2499112;-0.6364276;8
78.7630;-1.1355603;0.0420335;0.4323113;-0.7294440;0.3136559;0.2145900;8
78.8130;-1.4043882;0.3642057;0.4150964;0.5155984;0.0559729;1.1348364;8
78.8630;-1.3498437;0.3068327;-0.3229461;-0.0764472;0.0335409;2.8792547;8
78.9120;-1.5745894;-0.5124715;0.0439270;-0.4033777;-1.2346499;2.7739840;8
78.9630;-1.3339668;-0.2106285;0.0012557;1.8118835;-0.8846466;2.7168386;8
79.0130;-0.9227397;-0.1332634;-0.1426024;1.1999538;-0.6244113;2.1766353;8
79.0630;-0.7366908;-0.3012390;-0.0839407;0.5305139;-0.5573358;1.4777975;8
79.1130;-0.3055700;-0.3858277;-0.2801126;1.0680271;-0.3213895;0.4445793;8
79.1620;-0.4743098;-0.2718960;-0.0021488;1.4529406;0.0095271;-1.0648302;8
79.2130;-1.5786003;1.5275855;0.1914002;-0.6135288;0.0716752;-0.2318538;8
79.2630;-0.8911039;0.4255298;-0.1996260;0.6315061;-0.4374650;-0.1117684;8
79.3130;-1.1220049;-0.5864231;-0.0149788;-1.3351811;-0.3608663;-0.7539601;8
79.3630;-0.7480521;0.0892140;0.2582597;1.8000140;-0.0327107;-0.8698661;8
79.4120;-0.9882535;-0.1455423;0.3322494;-0.3691686;0.1300606;-1.5822414;8
79.4630;-0.8812483;-0.1628290;0.2141366;-0.2300696;0.2606431;-1.7666210;8
79.5130;-0.9712276;-0.0356264;-0.0950820;-0.9300171;0.2269802;-2.0137000;8
79.5630;-0.9198331;-0.1287805;0.0376913;-1.7873760;0.2883191;-1.9763122;8
79.6130;-1.0056408;-0.3007275;0.2093807;-1.5765502;0.6977782;-1.2226053;8
79.6620;-1.1550810;0.0603711;0.2612657;-0.3892193;0.3764259;-1.3571270;8
79.7130;-1.1909323;0.4185022;0.0801596;-1.0675905;0.1453137;-0.8155792;8
79.7630;-1.1533916;0.2777613;0.4941294;-1.1796859;0.2004148;0.4130128;8
79.8130;-1.3535348;0.2201140;0.5917448;0.7511395;0.0321621;1.5897397;8
79.8630;-1.3263822;0.1083978;-0.2714720;0.7652649;-0.3809369;3.0345222;8
79.9120;-1.6884387;-0.6253575;0.0468489;1.1059599;-1.4281562;2.6448452;8
79.9630;-1.2575485;-0.0822236;-0.1948265;2.1895398;-0.6053546;2.7966452;8
80.0130;-0.8601796;-0.0706006;-0.3010779;0.0329031;-0.2537644;2.2609779;8
80.0630;-0.6384300;-0.2471762;-0.0263008;-0.0304305;-0.1282020;1.5052730;8
80.1130;-0.3515990;-0.3599405;-0.1970892;1.2500877;0.0997333;0.7332826;8
80.1620;-0.4992631;-0.2117320;0.0539889;0.7028789;0.2239151;-0.7383838;8
80.2130;-1.4745468;1.4953264;0.3146075;-1.1320116;0.1810377;-0.9615714;8
80.2630;-1.0538275;0.5983656;-0.0895550;0.6807794;-0.5609151;-0.6316509;8
80.3130;-1.2800448;-0.2297079;0.0923702;-0.6423712;-0.3591350;-0.5139405;8
80.3630;-0.6716777;-0.1078035;-0.0173077;0.9727335;-0.2025754;-0.7673538;8
80.4120;-0.9741452;-0.2698206;0.3925883;-0.7808507;0.1947409;-1.6896992;8
80.4630;-0.8547987;-0.0572324;0.1644429;-0.0954875;0.3876615;-1.7544012;8
80.5130;-0.9397568;-0.0460523;-0.0347649;-0.8912214;0.2397167;-2.0821993;8
80.5630;-0.9466577;-0.0533579;0.0016577;-1.5097394;0.3667857;-2.0857238;8
80.6130;-1.0015340;-0.3610684;0.2300600;-1.5694136;0.6446364;-1.3063097;8
80.6620;-1.1193002;-0.0371832;0.2590194;-0.4647658;0.4241384;-1.4455401;8
80.7130;-1.1764855;0.3255207;0.0147039;-0.7316914;0.1815057;-0.9033948;8
80.7630;-1.1513366;0.1031907;0.2824390;-1.5315825;0.3215226;0.0171102;8
80.8130;-1.2357551;0.1291478;0.5409465;-0.2448767;0.2410615;0.4912238;8
80.8630;-1.4055419;0.4744082;-0.0740192;0.5401965;0.0234903;2.1873358;8
80.9120;-1.3819623;-0.4427704;0.0476104;0.0123854;-1.1553046;2.8443609;8
80.9630;-1.5880627;-0.2519885;-0.1369889;1.5724722;-1.1768986;2.9366189;8
81.0130;-1.0184004;-0.2068631;-0.0746035;1.2086978;-0.7305932;2.6930895;8
81.0630;-0.7575163;-0.2592660;-0.0576354;0.1240858;-0.5951468;1.9113245;8
81.1130;-0.4156260;-0.4759396;-0.1545485;0.9571751;-0.3148260;0.9889044;8
81.1620;-0.2684467;-0.4589674;-0.0747735;2.0773194;0.2657540;-0.3705999;8
81.2130;-1.3740177;1.1045808;0.0420412;-1.0056328;0.2335355;-0.8413824;8
81.2630;-1.2480097;0.8834760;0.0332618;0.9698504;-0.3097356;-0.2302132;8
81.3130;-1.1604216;-0.2112180;-0.0696255;-0.6419978;-0.3873032;-0.1127917;8
81.3630;-0.6498985;-0.1241413;0.2779597;0.7885540;-0.1544858;-0.7751359;8
81.4120;-1.0249297;-0.2929941;0.1243547;0.0208011;0.2497395;-1.3586154;8
81.4630;-0.9027368;-0.1857502;0.2761361;0.0115883;0.2345334;-1.8677736;8
81.5130;-0.9959297;-0.0944364;-0.0640084;-0.6003780;0.2795810;-2.1256858;8
81.5630;-1.0115119;-0.1246701;-0.0549828;-1.3376635;0.3756275;-2.3649779;8
81.6130;-1.0135404;-0.1845508;0.2108798;-1.6785497;0.6693935;-1.5242689;8
81.6620;-1.1128827;-0.0332207;0.2144767;-0.9063076;0.6086793;-1.4512740;8
81.7130;-1.1077009;0.3282116;0.1595467;-0.8115981;0.2854603;-1.0108762;8
81.7630;-1.1305744;0.1865591;0.3090993;-1.0626901;0.3769638;-0.0618404;8
81.8130;-1.3032136;0.2211183;0.5562705;0.0916652;0.0532086;0.8457865;8
81.8630;-1.4070347;0.3004650;-0.2479459;0.7281587;-0.1611884;2.6230533;8
81.9120;-1.5482584;-0.4754173;-0.1948284;-0.5637789;-1.2465303;2.8456090;8
81.9630;-1.4890789;-0.2707516;-0.1070579;1.1645147;-0.9953387;2.8515024;8
82.0130;-0.8842548;-0.1632070;-0.0969398;1.0592716;-0.5829634;2.4953831;8
82.0630;-0.7486241;-0.2336345;-0.0508063;0.1988297;-0.5700898;1.7817070;8
82.1130;-0.4101286;-0.3729904;-0.0980370;1.5219637;-0.3892322;1.1006894;8
82.1620;-0.3221716;-0.2692108;-0.0783916;1.9299454;-0.1395122;-0.1482850;8
82.2130;-1.0682221;1.1277810;-0.0052413;-1.4658364;0.0255598;-0.6294079;8
82.2630;-1.4477223;1.1487066;0.0574092;1.0915366;-0.0245703;-0.0387490;8
82.3130;-0.8990529;0.2734467;-0.2540104;-0.4501188;-0.4203202;0.2204044;8
82.3630;-1.0720116;-0.1539485;0.5090283;0.6492519;-0.4884771;-0.6697808;8
82.4120;-0.9301549;-0.5570902;0.0576134;-0.4713043;0.3063911;-1.5456119;8
82.4630;-0.9811021;-0.2619406;0.2187395;0.0335466;0.3281904;-2.0949963;8
82.5130;-1.0700410;-0.1122921;0.0621480;-0.6837650;0.2693114;-2.5269668;8
82.5630;-0.9830552;0.0380636;-0.0721713;-1.0529240;0.3450395;-2.5366823;8
82.6130;-0.8223534;-0.1274045;0.0458502;-2.2257379;0.5811242;-2.0670675;8
82.6620;-0.8971520;-0.1432484;0.2307823;-1.0222747;0.6591884;-1.8054160;8
82.7130;-1.0495873;0.2504370;0.1617691;-0.9334698;0.4338429;-1.3568842;8
82.7630;-1.2800637;0.1662645;0.3109976;-0.8897468;0.4090875;-0.5258803;8
82.8130;-1.4566170;0.3367451;0.6085135;0.1021818;0.0880642;0.5001768;8
82.8630;-1.6533537;0.3257944;-0.1512084;0.6531200;-0.2548975;2.9558706;8
82.9120;-1.7648546;-0.7292455;-0.1958712;0.3435941;-1.4618034;3.4080962;8
82.9630;-1.6431554;-0.2458210;0.0422845;2.1171699;-0.8740035;3.4759609;8
83.0130;-0.7207425;-0.2962329;-0.1506753;0.7921970;-0.4886109;2.8797048;8
83.0630;-0.5070221;-0.3533353;-0.0225031;-0.4542902;-0.5605856;1.9841363;8
83.1130;-0.0045598;-0.5471510;-0.2350164;1.1838215;-0.2108866;0.8946563;8
83.1620;-0.2755476;-0.2887840;0.1009324;1.8087116;0.0477384;-0.4449045;8
83.2130;-1.7696931;1.7404693;0.3792055;-0.0588024;0.0473476;0.7033756;8
83.2630;-0.5371879;0.4787357;-0.3065698;-0.1622144;-0.6456818;0.4161905;8
83.3130;-1.4583860;0.0124166;0.1746766;-0.2457442;-0.3020431;-0.2983749;8
83.3630;-0.2276754;-0.6061274;0.2611766;0.6473732;-0.1003718;-1.6514544;8
83.4120;-1.4688713;-0.5123079;0.4573574;0.0342739;0.1876594;-2.5210566;8
83.4630;-1.0616453;-0.1180227;-0.2419980;0.1454839;0.2751880;-3.1072398;8
83.5130;-1.2526483;0.1311620;-0.1178963;-1.5487236;0.2913583;-3.1767941;8
83.5630;-0.7254003;0.0489000;-0.0020224;-3.2366493;0.4078991;-2.5813854;8
83.6130;-0.8489110;-0.0032809;0.2189715;-2.3617274;0.7943852;-1.6825178;8
83.6620;-0.9386346;0.4181457;0.4130816;-1.7548215;0.3114620;-1.2497931;8
83.7130;-1.0942373;0.3600286;0.4960642;-0.7176683;0.4290157;0.0043880;8
83.7630;-1.7536914;0.1354468;0.5785201;0.6419167;-0.0527918;1.7815266;8
83.8130;-1.7933560;-0.2558934;-0.5806296;0.4220549;-1.0455030;3.2956982;8
83.8630;-1.9462101;-0.5181161;-0.0881785;1.0256806;-1.6224966;3.2526405;8
83.9120;-1.1863442;-0.3165919;0.0297830;2.0744972;-0.9967754;2.8876465;8
83.9630;-0.5753742;-0.3541212;-0.1522965;0.3240120;-0.7000360;2.1686206;8
84.0130;-0.1556850;-0.5301787;-0.2034176;1.2219652;-0.4668327;1.1813464;8
84.0630;0.1448363;-0.4315603;-0.2189824;2.2197337;0.1076266;-0.0505099;8
84.1130;-1.3378280;1.3372864;0.3208434;-1.5794766;0.3253434;0.3616535;8
84.1620;-1.1263732;0.8610753;-0.0755359;1.7241726;-0.2311815;0.3821766;8
84.2130;-1.3479411;-0.4415341;0.0158541;-0.2926151;-0.4927386;0.8410801;8
84.2630;-0.7418143;-0.7937541;0.3673421;0.2230414;-0.2196868;-1.7849260;8
84.3130;-1.1686778;-0.3157811;0.1525716;0.7117390;0.3370329;-2.2651059;8
84.3630;-1.0231740;-0.0365611;-0.0533885;-0.6460145;0.1756946;-2.9346741;8
84.4120;-1.1498615;0.0909537;-0.0103959;-1.9417235;0.4435121;-3.3018038;8
84.4630;-0.7917989;0.1368423;0.0185474;-2.1259323;0.6496638;-2.5107623;8
84.5130;-0.9347370;-0.1808024;0.3430149;-2.0894595;0.8189217;-1.6958801;8
84.5630;-1.0940743;0.4500790;0.4931988;-0.8702487;0.4385634;-1.5913883;8
84.6130;-1.2468601;0.4348977;0.1156285;-1.1309457;0.3253454;-0.3831128;8
84.6620;-1.5494803;0.2215921;0.6942895;-0.1301632;0.2483762;1.0887491;8
84.7130;-1.5745838;0.0710746;-0.3025220;0.7769186;-0.4240482;3.3156092;8
84.7630;-1.8610307;-0.6750542;-0.1799092;0.4576162;-1.6373127;3.1362419;8
84.8130;-1.4134503;-0.3452244;0.0792232;1.6270731;-1.1225118;3.1173513;8
84.8630;-0.7219156;-0.3035543;-0.0959146;0.8792290;-0.9291753;2.4930721;8
84.9120;-0.4346671;-0.4322794;-0.1018779;0.4870943;-0.8460799;1.4785154;8
84.9630;-0.0329267;-0.5302052;-0.3195020;1.7411564;-0.3513851;0.3497218;8
85.0130;-0.6402198;-0.1660463;0.0360225;1.8104379;-0.0477857;-0.7443666;8
85.0630;-1.6328032;1.7348381;0.2764263;0.9240933;0.0490777;1.0662284;8
85.1130;-0.9970808;0.0215463;-0.2734543;-1.7427562;-0.6157972;-0.4067671;8
85.1620;-0.6255217;-0.6776900;0.3701176;1.4074888;-0.3035655;-0.3925324;8
85.2130;-1.2700572;-0.6677019;0.2859339;-0.2781396;0.2548464;-2.0792792;8
85.2630;-0.8346826;-0.1398617;0.0609569;0.1942035;0.2205831;-2.7204795;8
85.3130;-1.0817278;-0.0683254;-0.1509047;-1.5466940;0.2394055;-3.0329860;8
85.3630;-0.9214177;0.0561932;0.0400222;-2.4766294;0.4701483;-2.6698632;8
85.4120;-0.9387181;-0.2562416;0.3147397;-2.1098653;0.6636716;-1.6904659;8
85.4630;-1.0812522;0.3015120;0.3042818;-0.9841001;0.3701803;-1.7258104;8
85.5130;-1.2563134;0.4083566;0.0979121;-1.4207967;0.3174321;-0.6973929;8
85.5630;-1.3442340;0.2642288;0.6721244;-0.7029969;0.1540921;0.5124595;8
85.6130;-1.6958706;0.3120111;0.0715845;0.8559575;-0.2180475;2.5922016;8
85.6620;-1.6343013;-0.6310383;-0.2034965;0.2284514;-1.1756738;3.4373492;8
85.7130;-1.6278296;-0.3068016;0.1298662;2.0375107;-1.0830596;3.3422233;8
85.7630;-0.7674874;-0.2974314;-0.0875604;1.3093617;-0.6323980;2.8172109;8
85.8130;-0.5716899;-0.3179678;-0.0560790;-0.1358440;-0.6420128;1.9653975;8
85.8630;-0.1663440;-0.4704902;-0.2392581;0.7581454;-0.3115733;0.9145799;8
85.9120;-0.3162342;-0.2704964;-0.0161511;2.1100812;0.0472004;-0.1598500;8
85.9630;-1.7266388;1.7558059;0.3350425;0.0894657;0.2439113;0.5653795;8
86.0130;-0.9013346;0.3207352;-0.3156735;-0.8029087;-0.5457426;-0.2484696;8
86.0630;-0.8385515;-0.4748513;0.3693184;1.0437142;-0.4505010;-0.3122866;8
86.1130;-1.1155834;-0.8593847;0.1847070;0.0318290;0.1287164;-2.1577674;8
86.1620;-0.9178576;-0.1687636;0.0332853;0.0707725;0.2994364;-2.6103342;8
86.2130;-1.1362830;-0.0810098;0.0706567;-1.0905358;0.2867509;-3.0718803;8
86.2630;-0.9325327;0.0854077;-0.0138346;-2.0973819;0.3725783;-3.0869156;8
86.3130;-0.8994855;-0.0204571;0.1313837;-2.7172558;0.6885509;-1.9247450;8
86.3630;-1.0432567;0.1876296;0.3317801;-1.2503264;0.4426811;-1.6721226;8
86.4120;-1.2062882;0.4458789;0.1909288;-1.6617425;0.2904960;-0.7406548;8
86.4630;-1.2234144;0.3077073;0.6796816;-0.7499833;0.3422784;0.4369954;8
86.5130;-1.7996627;0.3971818;0.2678752;0.8248359;-0.2430084;2.6231748;8
86.5630;-1.7649690;-0.6440689;-0.2713744;0.9701035;-1.6194869;3.4855024;8
86.6130;-1.7511094;-0.3309520;0.0926366;1.6163000;-1.4468568;3.4906534;8
86.6620;-0.7890771;-0.3993842;0.0484953;1.5113782;-1.1155397;2.8642486;8
86.7130;-0.3239572;-0.4400736;-0.2175368;0.4963703;-0.8013135;1.7272264;8
86.7630;0.1005891;-0.5076509;-0.4287482;1.5039232;0.1759401;0.5413583;8
86.8130;-0.6411731;0.0233361;0.0961615;1.8084996;0.3194964;-0.4490423;8
86.8630;-1.6191962;1.6297468;0.2767985;0.6227773;0.1127669;0.7271396;8
86.9120;-1.2251251;-0.0768261;0.0528926;-1.1839336;-0.6736337;0.2313250;8
86.9630;-0.1529671;-1.0219790;0.0365398;1.2789617;-0.2629890;-1.1891578;8
87.0130;-1.5385194;-0.5190029;0.2609992;-0.3283181;0.1307123;-2.1442967;8
87.0630;-0.8416289;-0.1611009;0.0788025;-0.1620550;0.2738823;-2.9207176;8
87.1130;-1.2209754;0.0360078;-0.0178461;-1.5953886;0.2942400;-3.0942726;8
87.1620;-0.9006818;0.1387006;-0.0050987;-2.3624775;0.4638808;-2.5079103;8
87.2130;-0.8589974;-0.1902523;0.1064611;-2.6322710;0.6628356;-1.7114181;8
87.2630;-1.0320247;0.3967553;0.3892177;-1.2190239;0.4689150;-1.6776500;8
87.3130;-1.1914025;0.4241660;0.2932159;-1.7363635;0.3789247;-0.4670784;8
87.3630;-1.4628284;0.3325561;0.7633362;-0.1074646;0.1710552;0.9297379;8
87.4120;-1.7078720;0.0631421;-0.2192610;0.7276306;-0.3977614;3.1715751;8
87.4630;-1.8910055;-0.6538494;-0.1799536;0.2613418;-1.5154232;3.1499664;8
87.5130;-1.4197916;-0.3692370;0.1310022;1.9486697;-1.2081271;3.0869471;8
87.5630;-0.6870930;-0.3221676;-0.0491167;1.1858521;-0.9233936;2.4095372;8
87.6130;-0.4031895;-0.4896468;-0.1206820;0.6445744;-0.7887138;1.4295675;8
87.6620;0.0771997;-0.5645340;-0.3444460;2.0433409;-0.3044507;0.3477655;8
87.7130;-0.8022934;0.1601956;0.0585530;1.1178913;-0.0023672;-0.5129601;8
87.7630;-1.5138428;1.5883810;0.2183464;1.5344454;-0.2103058;1.0246974;8
87.8130;-1.1854356;-0.1768729;-0.2011415;-2.1795450;-0.5823069;-0.1460788;8
87.8630;-0.1721756;-0.7646996;0.3344566;1.5534813;-0.1659284;-1.0666546;8
87.9120;-1.4725116;-0.4143421;0.4207283;-0.1033603;0.2236733;-1.9911880;8
87.9630;-0.8727143;-0.1263358;-0.0308131;0.1211906;0.2507404;-2.8934273;8
88.0130;-1.1933810;-0.0058295;-0.1484146;-1.5414431;0.2974271;-3.0326987;8
88.0630;-0.7973957;0.0575064;0.0561902;-2.5668604;0.5172126;-2.4404191;8
88.1130;-0.8740451;-0.2586383;0.2440336;-2.1840123;0.7303362;-1.6641591;8
88.1620;-1.0569759;0.3313765;0.3331925;-0.9987887;0.2881756;-1.6126718;8
88.2130;-1.2545167;0.3762683;0.1602912;-1.4442291;0.3769648;-0.3627827;8
88.2630;-1.3947529;0.3223944;0.6043490;-0.2918426;0.2020823;0.7712314;8
88.3130;-1.6845267;0.3962232;-0.2327389;0.4645634;-0.0345886;3.1165102;8
88.3630;-1.7160498;-0.7688091;-0.0469310;0.1078054;-1.4504180;3.1922415;8
88.4120;-1.5592405;-0.3295980;0.1678829;1.8201761;-1.2008656;3.2061411;8
88.4630;-0.7358322;-0.2940188;-0.1653770;1.1720480;-0.8719674;2.5005425;8
88.5130;-0.4552776;-0.3817445;-0.1356791;0.2088650;-0.7685385;1.4431974;8
88.5630;0.0361801;-0.4808829;-0.3554606;1.3795314;-0.1691850;0.3219120;8
88.6130;-0.6257812;-0.0674089;0.0788018;1.7169165;0.0867398;-0.7220564;8
88.6620;-1.6752300;1.6797246;0.3337139;0.6879206;0.0723698;1.0109271;8
88.7130;-1.0678152;-0.1491535;-0.2634777;-1.1769404;-0.6724024;-0.0086050;8
88.7630;-0.5868039;-0.6911768;0.3116035;1.4003472;-0.3119368;-0.8099918;8
88.8130;-1.3042146;-0.6132670;0.2291842;-0.5398690;0.2538438;-2.0913603;8
88.8630;-0.8670242;-0.1701066;0.1036000;-0.0091595;0.2927111;-2.9030434;8
88.9120;-1.1931233;0.0095013;-0.0830437;-1.6551907;0.3116197;-3.1422562;8
88.9630;-0.8963243;0.1356894;-0.0071413;-2.0119185;0.5270311;-2.3233728;8
89.0130;-0.8856275;-0.2547759;0.2105645;-2.1773156;0.5695862;-1.5977407;8
89.0630;-1.0237907;0.3269098;0.2871818;-1.5176801;0.3565207;-1.7106791;8
89.1130;-1.2656054;0.3767325;0.2084024;-1.6989407;0.3348233;-0.4324707;8
89.1620;-1.2975909;0.3163083;0.6105558;-0.7294105;0.2187175;0.5908215;8
89.2130;-1.7359698;0.2714507;0.2282147;0.5047977;-0.2550638;2.7127952;8
89.2630;-1.7043538;-0.6527610;-0.2654804;0.9789736;-1.5344703;3.2633402;8
89.3130;-1.5543902;-0.3299346;0.0669531;1.5694897;-1.3245976;3.2186832;8
89.3630;-0.7757502;-0.3524908;-0.0063622;1.0475412;-1.0666404;2.5407761;8
89.4120;-0.4575451;-0.4977125;-0.1624945;0.2606230;-0.9427011;1.3999593;8
89.4630;0.0788582;-0.5850954;-0.4070034;2.0465586;-0.1014890;0.2695856;8
89.5130;-0.8276294;0.3132902;0.0457967;1.6177553;0.3553121;-0.3304764;8
89.5630;-1.4737154;1.5074523;0.1303727;0.8674799;0.0934585;0.8561623;8
89.6130;-1.1422901;-0.6997636;-0.0557100;-1.4545002;-0.8163898;-0.3302368;8
89.6620;-0.6690525;-0.5420896;0.3123694;1.5847654;-0.0505572;-1.1090462;8
89.7130;-1.1760747;-0.4042376;0.1944826;-0.4875588;0.2765085;-2.2395024;8
89.7630;-0.9591464;-0.2661251;0.0278268;-0.5070126;0.3288435;-2.9755412;8
89.8130;-1.0566273;-0.1381453;-0.1987033;-2.1168784;0.5617230;-3.3764802;8
89.8630;-0.9354108;-0.0272432;0.1660367;-1.9754042;0.8317971;-2.4825503;8
89.9120;-1.0627863;0.3036525;0.5709247;-1.1377783;0.4714563;-1.4762864;8
89.9630;-1.1445603;0.3598904;-0.0058771;-1.7590291;0.1386805;-1.1900190;8
90.0130;-1.2636208;0.1789064;0.3802098;-1.2156147;0.2775768;0.1834659;8
90.0630;-1.5044937;0.3583009;0.5897379;0.1671426;-0.0799469;1.6149291;8
90.1130;-1.5962509;-0.2592564;-0.4275080;0.5967734;-0.6912993;3.4840859;8
90.1620;-1.8827026;-0.4731602;-0.0427602;1.3794667;-1.5744909;3.2653050;8
90.2130;-1.1477081;-0.3251581;0.0908294;1.4276995;-0.7756222;3.0411134;8
90.2630;-0.6006515;-0.2912644;-0.1473608;0.1077714;-0.6659050;2.1936680;8
90.3130;-0.3077861;-0.5295078;-0.1800419;0.5594746;-0.6137528;1.0009715;8
90.3630;0.0537203;-0.5484541;-0.2132103;2.1622201;-0.0536446;-0.1555749;8
90.4120;-1.3368359;0.9859101;0.2642282;-0.4858862;0.2478968;-0.0112102;8
90.4630;-1.1125064;0.9827940;-0.1350903;1.7390218;-0.4338428;0.3294113;8
90.5130;-1.3431837;-0.5412227;0.0606292;-0.5115448;-0.7566471;0.3108747;8
90.5630;-0.4711557;-0.8898476;0.3872994;0.5165002;0.0699496;-1.8980802;8
90.6130;-1.2342155;-0.2983474;0.0509946;0.5717099;0.4233864;-2.3025191;8
90.6620;-0.9416038;-0.1423438;-0.0886625;-0.9391564;0.2256758;-3.0094712;8
90.7130;-1.0578898;-0.0185677;-0.0587862;-2.2052609;0.5226411;-3.3232948;8
90.7630;-0.8824379;-0.0981695;0.1737297;-2.2019209;0.7266012;-1.9276528;8
90.8130;-1.0481436;0.1089747;0.3724816;-1.2100470;0.4003271;-1.7795133;8
90.8630;-1.1751548;0.4908715;0.0987028;-1.7602420;0.1473038;-1.0777243;8
90.9120;-1.2680355;0.2172925;0.5888162;-1.2579545;0.2954495;0.2683678;8
90.9630;-1.7198096;0.2101847;0.3751344;0.6953416;-0.2405920;1.8391972;8
91.0130;-1.5134491;-0.1497693;-0.5690704;-0.1272075;-0.5970434;3.5156035;8
91.0630;-1.7378225;-0.5065980;0.1981364;1.4039118;-1.3709743;3.0845427;8
91.1130;-1.0297069;-0.3874974;-0.0113050;1.9822250;-0.9388825;2.7941466;8
91.1620;-0.6192700;-0.3729697;-0.0837337;0.6965791;-0.9221816;1.8732826;8
91.2130;-0.1878212;-0.5035477;-0.2669586;0.6884319;-0.6870499;0.6389726;8
91.2630;-0.1142276;-0.4432454;-0.2480927;1.7318018;-0.0033827;-0.5022007;8
91.3130;-1.7086666;1.5447547;0.3591300;0.5364829;0.3520869;0.9876298;8
91.3630;-0.4404169;0.2270183;-0.2289272;0.0950232;-0.5939795;0.4109412;8
91.4120;-1.6074136;-0.2546063;0.5801283;-0.0835815;-0.6530578;-0.0887476;8
91.4630;-0.3979467;-0.7711292;-0.1902922;0.6556550;0.3503939;-1.9267508;8
91.5130;-1.2131543;-0.4375292;0.3894553;-0.0526772;0.1904825;-2.7372851;8
91.5630;-1.0123829;-0.1313515;-0.0695952;-0.6841687;0.3496061;-2.8503866;8
91.6130;-1.0130617;0.0772922;-0.0499234;-2.2286698;0.4290926;-3.0157486;8
91.6620;-0.8901891;-0.1124488;0.0925039;-2.6540660;0.7169294;-1.8358479;8
91.7130;-1.0614679;0.1321124;0.4072286;-0.8947802;0.4746193;-1.6158093;8
91.7630;-1.1354509;0.3694042;0.1043161;-1.4029463;0.2706041;-0.8909407;8
91.8130;-1.1901340;0.1167505;0.4762106;-0.9650312;0.3573665;0.1456236;8
91.8630;-1.6556594;0.4103939;0.4605595;0.5196282;-0.0639106;1.5754430;8
91.9120;-1.5594462;-0.2114272;-0.3245049;-0.1866548;-0.8115446;3.2224386;8
91.9630;-1.7845849;-0.5028106;-0.0516235;1.3802419;-1.5118702;3.1213936;8
92.0130;-1.1490497;-0.3092989;-0.0363328;1.7833736;-0.8509704;3.0554382;8
92.0630;-0.7053310;-0.3228224;-0.0913493;0.3320855;-0.8123547;2.0441159;8
92.1130;-0.3263278;-0.5308085;-0.1396186;0.7118308;-0.6701028;1.0429009;8
92.1620;0.0430004;-0.5399426;-0.2391162;1.8354147;-0.0885896;-0.0922379;8
92.2130;-1.3278986;1.0257779;0.2575959;-0.4546454;0.4634753;0.0772070;8
92.2630;-1.0813062;0.9928633;-0.0412090;1.6657631;-0.3588723;0.4363011;8
92.3130;-1.3412834;-0.7077113;0.0887502;-0.8195290;-0.6644003;0.2527027;8
92.3630;-0.5304352;-0.7866566;0.2498834;0.8525721;0.0664294;-1.7374604;8
92.4120;-1.2082174;-0.3053581;0.2566483;0.2377767;0.3289543;-2.3907646;8
92.4630;-1.0029008;-0.1611378;0.0144665;-0.5565576;0.2761310;-2.8207723;8
92.5130;-1.0791385;0.0289485;-0.0449649;-2.0609070;0.3901749;-3.1241862;8
92.5630;-0.8505219;-0.0593805;0.0190437;-2.7134990;0.7080814;-2.0330910;8
92.6130;-1.0121592;0.0339046;0.3145461;-0.9699016;0.5550188;-1.6996296;8
92.6620;-1.1384751;0.3814190;0.2138243;-1.7167426;0.2742372;-1.0296388;8
92.7130;-1.2660550;0.1961714;0.4744378;-1.1904854;0.3716750;0.0049967;8
92.7630;-1.6310753;0.4037762;0.5217686;0.2117815;-0.0970205;1.4747283;8
92.8130;-1.5544785;-0.2015309;-0.3932536;0.2538926;-0.8514758;3.2117470;8
92.8630;-1.7729636;-0.4671029;-0.0146167;1.1601413;-1.6946943;3.0168594;8
92.9120;-1.1421907;-0.3591132;0.1276726;1.8679584;-1.1058438;2.9629945;8
92.9630;-0.7023973;-0.3401835;-0.0356863;0.8325814;-0.8936416;2.2439462;8
93.0130;-0.2538776;-0.5350114;-0.2752151;0.9836953;-0.5998721;0.9618836;8
93.0630;0.0165851;-0.4187174;-0.3049624;1.8650547;0.2546520;-0.0178025;8
93.1130;-1.3912403;1.2071084;0.2608631;-0.3596515;0.5689285;0.2008679;8
93.1620;-1.0622480;0.7988315;-0.0649178;1.1044495;-0.5232535;0.2035655;8
93.2130;-1.4635102;-0.4542416;0.2404196;-0.4973214;-0.6146782;0.3569181;8
93.2630;-0.4690667;-0.8428169;-0.0138187;0.6825273;0.0888406;-1.7581858;8
93.3130;-1.3035387;-0.4391137;0.3036224;0.0294607;0.3799480;-2.5083413;8
93.3630;-1.0460584;-0.1264543;-0.0065334;-0.8927620;0.3688848;-2.8804207;8
93.4120;-1.0477561;0.1458714;-0.0455944;-2.1095231;0.4539215;-2.9122939;8
93.4630;-0.8475992;-0.0014465;0.1141873;-2.6971663;0.6870906;-1.9194280;8
