thigh_Accel_X,thigh_Accel_Y,thigh_Accel_Z,thigh_Gyro_X,thigh_Gyro_Y,thigh_Gyro_Z,label_header,label_id
-9.944786262379402553e-01,-6.314762134998296028e-02,3.891624123594748103e-02,8.877965851169440301e-03,9.236646220802925689e-02,3.651627450526929303e-02,1.201200000000000045e+01,8.000000000000000000e+00
-9.972473819649637639e-01,-5.708823726565831480e-02,3.115758481306427075e-02,-3.266752686426114410e-02,9.140257006341515056e-02,3.965062459503065212e-02,1.206300000000000061e+01,8.000000000000000000e+00
-9.935387304281786403e-01,-6.571544191991782191e-02,3.873605857506476347e-02,-4.291728238682986085e-02,7.828012428964983838e-02,2.230106816742071993e-02,1.211299999999999955e+01,8.000000000000000000e+00
-9.941809218180994723e-01,-5.400451958345316161e-02,3.703899449094444352e-02,9.948835202249766037e-04,7.307179701664900939e-02,1.948757231967785525e-02,1.216200000000000081e+01,8.000000000000000000e+00
-9.871058928411160505e-01,-6.999572316183390319e-02,3.619215442301498137e-02,4.106151429837846811e-02,7.189884624700255966e-02,-8.438262875696695905e-03,1.221299999999999919e+01,8.000000000000000000e+00
-9.938753809764427904e-01,-4.186160295908565587e-02,3.316801033621445682e-02,8.677980607324739526e-02,7.388267376022919497e-02,-1.932107708241605215e-02,1.226200000000000045e+01,8.000000000000000000e+00
-1.000403250017475765e+00,-3.316082440595348457e-02,2.377962788287821955e-02,-9.888138121026738420e-03,9.593198544114187043e-02,2.876112421331657523e-02,1.231300000000000061e+01,8.000000000000000000e+00
-9.707029457460972788e-01,-8.956663731889596969e-02,-3.304531111604309956e-02,-9.156238706641658953e-02,1.160420711751157796e-01,-4.870039083908243860e-02,1.236299999999999955e+01,8.000000000000000000e+00
-9.996374992421221961e-01,-6.156933655021103874e-02,8.155269681715206220e-02,-2.156124880908942831e-01,2.508266119905849800e-01,5.504954522455748206e-03,1.241200000000000081e+01,8.000000000000000000e+00
-1.007040594536084077e+00,-4.210826186180924996e-02,1.538494223802145400e-01,1.215884545851330933e-01,2.349726903411943069e-01,7.778142123490881799e-02,1.246299999999999919e+01,8.000000000000000000e+00
-9.983773010718952623e-01,-9.880494611011748224e-03,6.052125250529344358e-02,4.439543642194071493e-01,2.372068979882360762e-01,1.763756697715083699e-01,1.251200000000000045e+01,8.000000000000000000e+00
-1.041753355136423975e+00,1.447049824079805203e-01,1.290207876295660638e-01,2.313063666802644414e-01,2.090334009859299014e-01,4.126729702488605156e-01,1.256300000000000061e+01,8.000000000000000000e+00
-1.109745015089660836e+00,2.081455968075533181e-01,1.812626144033326336e-01,3.835131818995368702e-01,-4.413765762387186764e-02,1.152785982218009320e+00,1.261299999999999955e+01,8.000000000000000000e+00
-1.378005207245689201e+00,4.184044426475056477e-01,3.305060167359981371e-02,9.723042765124905173e-01,-1.409259807434873890e-01,2.189103900681675263e+00,1.266200000000000081e+01,8.000000000000000000e+00
-1.242330830479445369e+00,2.075246676284491776e-01,-6.736792406060229665e-02,1.039296094245837576e+00,-1.426600628965974948e-01,2.128785542187948465e+00,1.271299999999999919e+01,8.000000000000000000e+00
-9.675245366426062921e-01,-7.230654614484385845e-02,-5.308750205176056280e-02,9.270227218705870964e-01,-2.767218808077670511e-01,1.576053304987920178e+00,1.276200000000000045e+01,8.000000000000000000e+00
-7.397462482995104116e-01,8.989108529031926420e-02,-4.898022591751290122e-02,8.945216799711950273e-01,-9.071943277083155399e-02,1.135369741835659640e+00,1.281300000000000061e+01,8.000000000000000000e+00
-6.894459057784410039e-01,5.468916514401159917e-02,-2.615912685186259565e-02,6.940353259186740620e-02,-1.317027450229600327e-01,5.969356187412716563e-01,1.286299999999999955e+01,8.000000000000000000e+00
-7.014517748096180672e-01,1.295550275017242625e-01,-5.363747094118596903e-02,2.426908730421923344e-01,-1.241697342630319889e-01,3.414177241925609005e-04,1.291200000000000081e+01,8.000000000000000000e+00
-8.747786183124295345e-01,5.007982870600418135e-01,-7.637631202504777117e-02,2.827066061476701808e-02,-3.237634404868502958e-01,-1.270630705272980665e-01,1.296299999999999919e+01,8.000000000000000000e+00
-8.496886091409729946e-01,5.147796896305583125e-01,-4.140199564942738213e-03,-1.660512166467168968e-02,-3.732250458874028509e-01,-7.184922232063624126e-01,1.301200000000000045e+01,8.000000000000000000e+00
-9.230425242730462276e-01,2.753957416682040193e-01,-1.022980392000576721e-01,-8.162102802963969728e-01,1.039606942186711291e-01,-1.072997312004935200e+00,1.306300000000000061e+01,8.000000000000000000e+00
-1.033790054125763191e+00,4.534270203526233334e-01,1.339350269672053284e-01,-2.493410885562525880e-01,7.961536461580284718e-02,-5.020674319880505942e-01,1.311299999999999955e+01,8.000000000000000000e+00
-9.411731994402139367e-01,2.533166420055911194e-01,-2.815808322521288695e-02,-1.463655530005461836e-01,5.570551643264345237e-02,-4.692903085368954064e-01,1.316200000000000081e+01,8.000000000000000000e+00
-1.350269501138937400e+00,3.542018693886982428e-01,-5.981133170157081069e-02,-2.685135588903077020e-01,7.257435439885771833e-02,-2.734882144212035238e-01,1.321299999999999919e+01,8.000000000000000000e+00
-9.575812978867898062e-01,2.627113173177444416e-01,1.427310137876687812e-01,1.392431887307515603e-01,-1.757166126181362309e-01,-1.149280154721133290e-01,1.326200000000000045e+01,8.000000000000000000e+00
-9.239225742298895483e-01,1.440773543868821838e-01,1.048034900535529113e-01,-1.957218904904325929e-01,-2.685073359492098910e-01,-4.661391753321314502e-01,1.331300000000000061e+01,8.000000000000000000e+00
-9.957329039575097962e-01,-2.462994902325361599e-02,1.798624146748471764e-02,8.150517086675100609e-02,-1.586998738248658614e-01,-6.298454846412934183e-01,1.336299999999999955e+01,8.000000000000000000e+00
-9.838144414881078159e-01,3.428558050197456908e-02,-2.621507552979062544e-02,1.190959882915610529e-01,1.017514255350509267e-01,-4.875252879134387984e-01,1.341200000000000081e+01,8.000000000000000000e+00
-9.908694065646252991e-01,5.425223964988618378e-03,2.578625910326305948e-01,-2.536369305035263144e-01,-4.777276142205887088e-02,-5.831048460309773418e-01,1.346299999999999919e+01,8.000000000000000000e+00
-9.607292029594549643e-01,-6.135704443666859659e-02,2.253205871779060399e-01,-5.190380647515682178e-01,-3.568756623997998423e-02,-7.439112456000336326e-01,1.351200000000000045e+01,8.000000000000000000e+00
-9.792444368687049927e-01,-3.980284166790979544e-02,1.313757949021099325e-01,-3.751810926190717876e-01,1.418026141135420581e-01,-8.165338869037531699e-01,1.356300000000000061e+01,8.000000000000000000e+00
-9.717350550656144170e-01,-8.737584393334127397e-02,1.620122442647066174e-01,-2.497142619471648950e-01,1.004922718488725497e-01,-8.592829795018076533e-01,1.361299999999999955e+01,8.000000000000000000e+00
-9.645378495516769846e-01,-5.985456313754029811e-02,1.552797304709490345e-01,-1.887454243403982601e-01,1.786161836996630892e-01,-8.833304364121303820e-01,1.366200000000000081e+01,8.000000000000000000e+00
-9.479783858002258645e-01,-6.529401577864435424e-02,9.530280980142837033e-02,-3.986543060464226573e-01,2.126725363827328685e-01,-9.552133786972458740e-01,1.371299999999999919e+01,8.000000000000000000e+00
-1.012565085867285664e+00,-7.554195575307753874e-02,8.079814728150595815e-02,-4.705371064202583109e-01,3.340024900177051004e-01,-8.421899464442503813e-01,1.376200000000000045e+01,8.000000000000000000e+00
-1.031287586037609838e+00,-5.228834015717949424e-02,1.675179056318908954e-01,-7.389920654167846381e-01,3.773974734200801762e-01,-4.994941214638611848e-01,1.381300000000000061e+01,8.000000000000000000e+00
-1.025328590485291569e+00,-4.896991989625412017e-02,1.570776116052569338e-01,-5.339879656927525309e-01,1.019891947296974327e-01,-2.975441471313852171e-01,1.386299999999999955e+01,8.000000000000000000e+00
-9.979707110867929165e-01,-1.143241210983130668e-01,1.746392794519384117e-01,-7.616196472286014263e-01,1.222793950646219319e-01,-2.191737346142811627e-01,1.391200000000000081e+01,8.000000000000000000e+00
-1.091432587754055605e+00,-1.736600517705302604e-01,2.387139335171823140e-01,-2.364550676209626057e-01,1.384805587968474805e-01,-4.686643107334741154e-02,1.396299999999999919e+01,8.000000000000000000e+00
-1.125059918745662024e+00,-8.947436489924912029e-02,1.740705447721140886e-01,3.952938803604016949e-01,4.766965923668817912e-02,2.135199997928955984e-01,1.401200000000000045e+01,8.000000000000000000e+00
-1.059187908804767542e+00,-1.645710299666931428e-02,7.746910046336613620e-02,4.153766818675174166e-01,1.053652533366724597e-01,4.326046386655225673e-01,1.406300000000000061e+01,8.000000000000000000e+00
-1.044621977780657351e+00,6.766600813134673875e-02,-4.118502687317297101e-02,8.787649308565867456e-02,1.594271851393454509e-01,8.400864110212635794e-01,1.411299999999999955e+01,8.000000000000000000e+00
-1.039093144736612961e+00,8.647965673622455551e-02,-6.608351165420164874e-02,-8.316874999026310777e-02,3.264395508071641916e-01,1.698302191283609375e+00,1.416200000000000081e+01,8.000000000000000000e+00
-1.164455448478398658e+00,-6.692235744935352837e-02,1.428105640567645454e-02,1.270994507685895003e-01,7.616429167946801859e-02,2.037655388459310490e+00,1.421299999999999919e+01,8.000000000000000000e+00
-1.140040644317388496e+00,-1.601715935910153210e-01,-1.103761694131077109e-01,3.893121172893072024e-01,3.314358132252855776e-02,1.930801920030843943e+00,1.426200000000000045e+01,8.000000000000000000e+00
-1.039203545727325206e+00,-2.365156706969323910e-02,-3.807255641184884715e-02,3.879817839066638241e-01,-8.839625478919133084e-02,1.468886134719616710e+00,1.431300000000000061e+01,8.000000000000000000e+00
-8.958644364005854399e-01,-3.620094354199006326e-02,-4.989450127513551936e-02,4.159723692606943080e-01,-1.152001192556123543e-01,1.098659037932802063e+00,1.436299999999999955e+01,8.000000000000000000e+00
-8.505875899839274723e-01,-8.048181626366134045e-03,-4.664725823420756007e-02,5.305138484886711137e-01,-9.270515640807161506e-02,8.027764535269028556e-01,1.441200000000000081e+01,8.000000000000000000e+00
-8.342857869445697849e-01,5.778364334797066182e-02,-2.355424117355806729e-02,3.282020769467379195e-01,-2.095627108147998519e-01,3.969380420518995312e-01,1.446299999999999919e+01,8.000000000000000000e+00
-7.896281918571608216e-01,1.383056906097508698e-01,-4.809446253560232393e-02,3.344167170315225923e-01,-2.233335090083693741e-01,-7.272249710525403865e-02,1.451200000000000045e+01,8.000000000000000000e+00
-9.220471435785638770e-01,3.479140045077832033e-01,1.584725326671192897e-02,-2.216998153416145298e-02,-1.903184738932264530e-01,-3.557780549038723761e-01,1.456300000000000061e+01,8.000000000000000000e+00
-9.894334392156040048e-01,4.649403314109578078e-01,2.607730621359937231e-02,-7.963583316662752043e-02,-1.876276335155713793e-01,-3.714171710317650810e-01,1.461299999999999955e+01,8.000000000000000000e+00
-9.773320040361200833e-01,3.989429031999873754e-01,-1.109229052415080900e-02,1.406642727300228823e-01,-9.769313499363770775e-03,-3.119020676227299282e-01,1.466200000000000081e+01,8.000000000000000000e+00
-9.380153116007520220e-01,3.520843382924777609e-01,3.398999982754873084e-02,3.379650886775263374e-01,-6.484404358529291361e-03,-1.535381329240893822e-01,1.471299999999999919e+01,8.000000000000000000e+00
-9.350435673734309727e-01,3.009575625776503283e-01,-2.424990347519527176e-02,-2.228364693582285394e-01,-1.049801527578238247e-01,-4.162199961427591743e-01,1.476200000000000045e+01,8.000000000000000000e+00
-1.184366843193000118e+00,1.370380774280181568e-01,-2.832588705311421193e-02,-2.123357820280493136e-01,-6.196963617394242452e-02,-5.318145311931116170e-01,1.481300000000000061e+01,8.000000000000000000e+00
-1.067631019790207914e+00,3.235697819236793005e-01,1.245433882334826270e-01,4.035159112436735862e-01,-9.886139368922723658e-02,-2.236874326856430062e-01,1.486299999999999955e+01,8.000000000000000000e+00
-9.015482896198723228e-01,8.918333830443826715e-02,6.122799404321762479e-02,4.316092545789054213e-01,-3.514840034091419319e-01,-4.213904620168312798e-01,1.491200000000000081e+01,8.000000000000000000e+00
-9.829189570151413147e-01,5.627980886954200498e-03,-3.500967025240576264e-02,-5.478913311132922459e-01,-8.799301070726120444e-02,-7.462610694392662891e-01,1.496299999999999919e+01,8.000000000000000000e+00
-9.738477274268617645e-01,-3.767455130881958159e-02,1.679998767395801118e-01,-4.510673404783917262e-02,3.124829677877286049e-02,-8.629928788944342122e-01,1.501200000000000045e+01,8.000000000000000000e+00
-9.651495134446635982e-01,2.607861365096633688e-02,9.530127054443235379e-02,7.873826055552603231e-02,1.346926884307341789e-02,-7.679338881950859008e-01,1.506300000000000061e+01,8.000000000000000000e+00
-1.000087451488393508e+00,6.017870207243659897e-02,1.716564811504854293e-01,-2.706566321128310859e-01,-2.835227371593916071e-04,-7.109723714599393007e-01,1.511299999999999955e+01,8.000000000000000000e+00
-9.864204606128426089e-01,1.467961439793704671e-02,1.376481655604780696e-01,-4.371687523911825801e-01,1.503255481676558925e-02,-5.386401304316613681e-01,1.516200000000000081e+01,8.000000000000000000e+00
-9.715589877958453746e-01,-1.029695510911594614e-01,1.267345044481453242e-01,-4.640278085595636037e-01,-1.290059254065758533e-02,-5.234322515545566379e-01,1.521299999999999919e+01,8.000000000000000000e+00
-9.688355689210027544e-01,-8.831350169207426160e-02,1.568921524135535039e-01,-3.480391411536589708e-01,8.252359145418745878e-02,-4.871175329064675319e-01,1.526200000000000045e+01,8.000000000000000000e+00
-9.717839525359719399e-01,-8.055464707089035614e-02,1.901280133311323006e-01,-2.289629586766542546e-01,7.618061887612689875e-02,-5.156287287627531191e-01,1.531300000000000061e+01,8.000000000000000000e+00
-9.572845468365918098e-01,-1.002808521314749735e-01,1.966969301069888820e-01,-1.824288542423492532e-01,1.266331451038084643e-01,-5.832157938207509495e-01,1.536299999999999955e+01,8.000000000000000000e+00
-9.890075218483399544e-01,-3.798462847954788696e-02,1.526214773687565029e-01,-2.366921909611695019e-01,2.203381338971797110e-01,-5.347694538902797445e-01,1.541200000000000081e+01,8.000000000000000000e+00
-9.639626931383148412e-01,-8.646255931589419408e-02,1.884912452100866997e-01,-5.663316786271088699e-01,1.809708452044613280e-01,-4.182170317533704385e-01,1.546299999999999919e+01,8.000000000000000000e+00
-9.743983857710715180e-01,-1.367868328122775201e-01,1.097955539804861547e-01,-4.171429143123776551e-01,1.804798786092885743e-01,-2.715352131956215165e-01,1.551200000000000045e+01,8.000000000000000000e+00
-9.838461995976273133e-01,-1.574276577759622930e-01,1.298706678955834914e-01,-4.550415083274437222e-01,7.016448602388539180e-02,-1.428681314143585568e-01,1.556300000000000061e+01,8.000000000000000000e+00
-1.008938680891213302e+00,-1.340320604930043125e-01,7.975501366663134695e-02,-6.450172726571581361e-01,6.736034027618600928e-02,-1.136120638344137318e-01,1.561299999999999955e+01,8.000000000000000000e+00
-1.183242564688186116e+00,-1.050472093641557914e-01,1.969357846939199796e-01,-5.515666489976716047e-01,1.180002477335080624e-01,-2.650070965396689182e-02,1.566200000000000081e+01,8.000000000000000000e+00
-1.147478014473735985e+00,6.668045173741464840e-03,2.521203264239165742e-01,-2.724769231609128900e-02,1.048191236219343514e-01,3.436028083123087162e-01,1.571299999999999919e+01,8.000000000000000000e+00
-1.094240018860761499e+00,7.925727033963221591e-02,3.199497709979134269e-02,6.512021265464019715e-01,7.279944699990502366e-02,1.046097128986055225e+00,1.576200000000000045e+01,8.000000000000000000e+00
-1.049356958873985279e+00,1.550455346297935078e-01,-1.670884543458084071e-01,3.404068485997069904e-01,3.337777580044579695e-01,1.821060700918230690e+00,1.581300000000000061e+01,8.000000000000000000e+00
-1.127662523464075806e+00,-5.066734039345530821e-02,-1.258039716414963236e-03,-6.143349623299440010e-01,7.030067662422853636e-02,1.888947331622517156e+00,1.586299999999999955e+01,8.000000000000000000e+00
-1.161619662754668214e+00,-2.482955697905846471e-01,2.448199208614817990e-01,3.261812687224785456e-02,-1.966494599085589767e-01,1.793878884474727098e+00,1.591200000000000081e+01,8.000000000000000000e+00
-1.065520331802790599e+00,-7.226414157552060735e-02,6.032388724014643711e-02,1.275126158780727215e+00,-2.928025476458818721e-01,1.506770586202863971e+00,1.596299999999999919e+01,8.000000000000000000e+00
-9.733014313783593385e-01,7.055978992693380525e-02,-1.142233544282307972e-01,1.047823058345210390e+00,-2.200404336797770477e-01,1.305156808193050022e+00,1.601200000000000045e+01,8.000000000000000000e+00
-8.795486650464008349e-01,3.362603696119265129e-02,-1.836098884043360982e-02,4.775143823100589380e-01,-2.614176086807398214e-01,9.404352143292508126e-01,1.606200000000000117e+01,8.000000000000000000e+00
-7.763561552806633737e-01,9.639439951891169700e-03,-3.806779325624888577e-02,3.633991472002128242e-01,-1.322949806931383032e-01,4.814460995124824616e-01,1.611299999999999955e+01,8.000000000000000000e+00
-6.896570740734084826e-01,6.672876980939115854e-02,-5.592851254389698268e-02,-2.088581841011898782e-02,-1.206893549700181340e-01,-1.534172623191799034e-01,1.616300000000000026e+01,8.000000000000000000e+00
-8.080874509158324503e-01,2.245459665974524621e-01,1.039798716573754750e-01,3.783149143445645457e-01,-1.171138008117771079e-01,-7.888819988955597662e-01,1.621199999999999974e+01,8.000000000000000000e+00
-1.055479120204179333e+00,6.387988249343694580e-01,4.739628262442529411e-02,1.047158437216522409e-01,-8.548780410316661471e-02,-5.211047071004566433e-01,1.626200000000000045e+01,8.000000000000000000e+00
-1.060291136277945245e+00,6.263598744390193040e-01,8.343281395707476122e-02,-7.717066710261667739e-02,1.438988213693477014e-01,-2.210332089658583743e-01,1.631200000000000117e+01,8.000000000000000000e+00
-8.915783658913591925e-01,3.040913722952577891e-01,3.520288039401516661e-02,2.417138382867164703e-01,-5.900184285415834007e-02,-1.153803776922101704e-01,1.636299999999999955e+01,8.000000000000000000e+00
-1.151951416332489986e+00,3.234953458932071646e-02,-6.908731765427232607e-02,-3.618955424756505335e-01,1.142056298533404152e-01,-6.074045243241950054e-01,1.641300000000000026e+01,8.000000000000000000e+00
-1.150139074091319547e+00,1.713828877034873355e-01,1.043745280924117252e-01,4.607061590769258030e-01,5.820790376342532824e-02,-4.819077136594970279e-01,1.646199999999999974e+01,8.000000000000000000e+00
-9.355491358681368164e-01,1.808777278534773603e-01,1.073052474483292829e-01,3.933833421215818804e-01,-2.264176146916191124e-01,-3.903613279601775288e-01,1.651200000000000045e+01,8.000000000000000000e+00
-9.024324643012681113e-01,-1.239677814215016244e-01,5.721181701879964401e-04,-8.535794107485923377e-01,-2.129843719575201799e-01,-1.040244772212243429e+00,1.656200000000000117e+01,8.000000000000000000e+00
-1.006714469619838681e+00,9.711781369238786654e-02,4.676680925667779654e-02,2.611672596192902707e-01,4.163322661354693782e-02,-4.074852485809952185e-01,1.661299999999999955e+01,8.000000000000000000e+00
-9.725780079015853286e-01,-6.825288334902500798e-04,2.265892884950114206e-01,-2.017352315013303810e-01,-1.325653189462555007e-03,-6.229950393569335665e-01,1.666300000000000026e+01,8.000000000000000000e+00
-9.499054036774738918e-01,-6.978315575349405830e-02,1.809568657331905306e-01,-9.639891376322376471e-02,-7.349829383826012204e-03,-7.114482320747002042e-01,1.671199999999999974e+01,8.000000000000000000e+00
-9.725768794318871979e-01,-5.984014581663936461e-02,1.034924352559282862e-01,-2.719066314507427862e-01,8.657162298426863967e-02,-7.561379345094809690e-01,1.676200000000000045e+01,8.000000000000000000e+00
-1.000393067071889242e+00,-6.931443025810786474e-02,1.170754408735716623e-01,-4.290409838051494340e-01,1.264455864969276644e-01,-6.382465676324906578e-01,1.681200000000000117e+01,8.000000000000000000e+00
-9.868733463259810046e-01,-1.016578369527522119e-01,2.259837801508644550e-01,-5.683423586324646420e-02,3.754240254722952808e-02,-4.539881719297241824e-01,1.686299999999999955e+01,8.000000000000000000e+00
-9.470298575017059850e-01,-9.551254273683854046e-02,1.361824739714179999e-01,-1.814114647822012150e-01,8.945221637211707433e-02,-5.573554417515798054e-01,1.691300000000000026e+01,8.000000000000000000e+00
-9.929196367742104679e-01,-7.654438775163857622e-02,7.855003086107700816e-02,-4.906456314331053004e-01,1.494062930314602189e-01,-5.648710908349358073e-01,1.696199999999999974e+01,8.000000000000000000e+00
-9.774543378555456963e-01,-6.360598635214290142e-02,1.846743195466968301e-01,-5.214956615049579636e-01,1.715545138412881143e-01,-4.442806456655638558e-01,1.701200000000000045e+01,8.000000000000000000e+00
-9.632262835677429802e-01,-6.823687114567886236e-02,1.552181746976545873e-01,-6.919624726294186789e-01,2.379638526365130125e-01,-2.518112458014012400e-01,1.706200000000000117e+01,8.000000000000000000e+00
-9.900690237215210576e-01,-1.265299179438934551e-01,1.488547093375687802e-01,-4.607226120874494124e-01,1.636913064290186903e-01,-2.345505947916496081e-01,1.711299999999999955e+01,8.000000000000000000e+00
-9.747732023083329755e-01,-1.560568999991262529e-01,1.581816998123408147e-01,-4.374913310168891956e-01,1.470433776917022817e-01,-2.318030587933463116e-01,1.716300000000000026e+01,8.000000000000000000e+00
-1.128672278518428440e+00,-1.744342664201208870e-01,1.635254007403916243e-01,-2.056024997160393608e-01,1.135714868667334204e-01,-2.073427591851439433e-01,1.721199999999999974e+01,8.000000000000000000e+00
-1.186748461774372876e+00,5.530408844601569784e-03,1.281382477126413177e-01,9.570675615099255573e-02,6.741913229227000648e-02,1.751802138074018411e-01,1.726200000000000045e+01,8.000000000000000000e+00
-1.116920084354078968e+00,9.905291652975796446e-02,1.370396888406691382e-01,2.651077845439646086e-01,3.716884190117482334e-02,7.864374793974404643e-01,1.731200000000000117e+01,8.000000000000000000e+00
-1.049193045694661652e+00,1.295864800795428207e-01,-2.364178586119392803e-03,4.241621652952579646e-01,2.574076247715199606e-01,1.454639149154548949e+00,1.736299999999999955e+01,8.000000000000000000e+00
-1.044535924705026320e+00,-3.550561886492268476e-02,-4.105531774556951674e-02,2.079944480363760950e-01,1.982736769192683934e-01,1.946871894602332009e+00,1.741300000000000026e+01,8.000000000000000000e+00
-1.140113937346150408e+00,-1.513483317957162455e-01,4.103196393876092085e-02,3.579657404735079318e-01,3.796564392080235828e-02,1.983226933751855325e+00,1.746199999999999974e+01,8.000000000000000000e+00
-1.123239141840717936e+00,-1.548236002014974910e-01,5.164686420272294326e-02,5.219849667123337422e-01,-1.461361501427858034e-01,1.475957554530558768e+00,1.751200000000000045e+01,8.000000000000000000e+00
-9.481047147912045059e-01,4.579797781543495233e-02,-5.033272618920133640e-02,8.194079150513207122e-01,-1.097510960183452344e-01,1.229059823401970286e+00,1.756200000000000117e+01,8.000000000000000000e+00
-8.867334587460090622e-01,3.456095887037503867e-02,-2.411918845805805997e-02,5.751306521251062787e-01,-1.459890629292427966e-01,9.548826037350327534e-01,1.761299999999999955e+01,8.000000000000000000e+00
-8.069060787730339968e-01,2.725081996930413947e-02,-9.511139831781816045e-02,3.366435834442636499e-01,-8.741925777260031727e-02,4.886573881597479629e-01,1.766300000000000026e+01,8.000000000000000000e+00
-8.036699905729960403e-01,9.919131489322716155e-02,-7.898788702958194075e-02,-2.140366248790856185e-01,-1.002555314156483059e-02,7.246955244592995227e-02,1.771199999999999974e+01,8.000000000000000000e+00
-8.227642787467995822e-01,2.314576094532483364e-01,1.035077073220737505e-02,-3.444151060209761361e-01,2.568995263206206789e-02,-3.375809967511680942e-01,1.776200000000000045e+01,8.000000000000000000e+00
-9.470288147428732595e-01,4.564690162943929042e-01,1.274656995585133346e-01,1.520132859542660808e-01,-1.182874575260215236e-02,-4.496696146281126683e-01,1.781200000000000117e+01,8.000000000000000000e+00
-9.625099668030395739e-01,4.804330484120919453e-01,1.349952189284487312e-02,2.588353213260276564e-01,1.143715966313798293e-01,-6.095183496598386430e-01,1.786299999999999955e+01,8.000000000000000000e+00
-1.036447462343829784e+00,4.367229225021848071e-01,8.116589796007599167e-02,-6.697751182294811034e-01,9.728266278526334632e-02,-4.066806988354342289e-01,1.791300000000000026e+01,8.000000000000000000e+00
-9.889833142461170734e-01,1.455510102753529433e-01,3.963299424589283859e-02,5.862353152465745731e-01,-1.121213857957966409e-01,-2.584510078978948244e-01,1.796199999999999974e+01,8.000000000000000000e+00
-1.185697093881948438e+00,-4.746348985686676958e-02,5.135907651458252593e-02,3.813615898595206777e-01,-2.464299277749133071e-02,-7.204846058373051143e-01,1.801200000000000045e+01,8.000000000000000000e+00
-1.069699577738706608e+00,3.241199910265278872e-01,-1.475165300055583661e-02,6.843821472381421689e-01,-9.969647309743416563e-02,-5.049248406058920446e-01,1.806200000000000117e+01,8.000000000000000000e+00
-8.231609328239656298e-01,-2.280299446887405490e-01,-1.423683314644171305e-01,-6.953880392054591075e-01,-3.900099897126278747e-02,-8.139977088300123231e-01,1.811299999999999955e+01,8.000000000000000000e+00
-1.011920253530019354e+00,7.363881038868214102e-02,1.164608297291376271e-01,-3.078662655945432758e-01,1.081732105269079813e-01,-7.308148078424746563e-01,1.816300000000000026e+01,8.000000000000000000e+00
-9.550710783280180749e-01,-1.200671472359847308e-01,2.047651218701447839e-01,-2.006598927147739408e-01,5.357621429120715956e-02,-7.429521054543600789e-01,1.821199999999999974e+01,8.000000000000000000e+00
-9.960627108712071243e-01,-5.653525261345820896e-02,1.927371703007095260e-01,-3.169088649476022312e-01,9.859846380110801056e-02,-7.752744401048041745e-01,1.826200000000000045e+01,8.000000000000000000e+00
-1.029620712191271270e+00,1.875058860580498463e-02,5.451830101875317081e-02,-1.830058189499236820e-01,1.527901614124862421e-03,-5.900880526957992256e-01,1.831200000000000117e+01,8.000000000000000000e+00
-9.980256433806522498e-01,-1.179829553613842390e-02,6.801662148042789124e-02,-4.239188257327647369e-01,-3.003463877581765556e-02,-3.699272506046483722e-01,1.836299999999999955e+01,8.000000000000000000e+00
-9.564741170583378471e-01,-1.328293861716888791e-01,1.324336997898442891e-01,-4.994123947403707464e-01,-1.692079526288626807e-03,-3.905670315683897331e-01,1.841300000000000026e+01,8.000000000000000000e+00
-9.657261373035531671e-01,-1.441518246927068481e-01,1.407400036886719552e-01,-3.226976929101646463e-01,6.575793175403421564e-02,-4.109551453910620933e-01,1.846199999999999974e+01,8.000000000000000000e+00
-9.707952910312265260e-01,-1.636131647562285851e-01,1.271892836798649562e-01,-2.181280462429471267e-01,1.183642849021533799e-01,-4.521026965953673371e-01,1.851200000000000045e+01,8.000000000000000000e+00
-9.843031785503326692e-01,-8.874716563239426481e-02,1.310918007010340447e-01,-6.731329301295943535e-02,9.228133140687122538e-02,-4.104046589447500892e-01,1.856200000000000117e+01,8.000000000000000000e+00
-9.724719647214614682e-01,-1.189068100708699782e-01,1.402493843370893889e-01,-3.453320632751606944e-01,8.195320360823989125e-02,-3.715901362278511977e-01,1.861299999999999955e+01,8.000000000000000000e+00
-9.813521365001264263e-01,-1.644586859381482746e-01,1.243888412877319355e-01,-4.240948802281228613e-01,1.016532118619009328e-01,-3.472973706996424492e-01,1.866300000000000026e+01,8.000000000000000000e+00
-1.028930178013131247e+00,-1.628079735360336289e-01,9.373939271857054112e-02,-3.780343685778197460e-01,1.391258833928273320e-01,-2.636237266902291543e-01,1.871199999999999974e+01,8.000000000000000000e+00
-1.129577105913297519e+00,-1.531341529268567536e-01,1.520517542070779216e-01,-2.455771945320443517e-01,1.650889881712553908e-01,-2.053547355719499146e-01,1.876200000000000045e+01,8.000000000000000000e+00
-1.152773851899208335e+00,-4.556778407127777542e-02,1.541804048057176524e-01,-6.264548425985808078e-02,1.139032603958933382e-01,9.710854314506812968e-02,1.881200000000000117e+01,8.000000000000000000e+00
-1.045106422406981928e+00,8.574552475175546695e-02,1.160854843660640984e-01,2.142429050154899817e-01,-1.175723143387797515e-02,6.586634926779562083e-01,1.886299999999999955e+01,8.000000000000000000e+00
-9.978981096177037546e-01,1.249770333428337626e-01,-3.711866408270154960e-03,4.211220947426498329e-01,5.836526329254421164e-02,1.461367075642659108e+00,1.891300000000000026e+01,8.000000000000000000e+00
-1.065102098207995285e+00,-5.990635193138783843e-02,-1.958897313051743971e-02,-7.944075175753780027e-02,9.023120107848056626e-02,1.990807015929220825e+00,1.896199999999999974e+01,8.000000000000000000e+00
-1.165741509871274895e+00,-2.208725428658525058e-01,1.110619583630518825e-01,1.487072775646970657e-01,-2.226703365940346235e-01,1.737990059163875056e+00,1.901200000000000045e+01,8.000000000000000000e+00
-1.065152484243245379e+00,-1.673096985520450553e-01,4.777155837376576702e-02,1.011614121730451732e+00,-1.915072762794950145e-01,1.546379392859719815e+00,1.906200000000000117e+01,8.000000000000000000e+00
-9.888075212767274413e-01,5.244501881514272712e-02,-1.049818362784977754e-01,8.236395225504422601e-01,-1.069142126579010477e-01,1.208914504559807535e+00,1.911299999999999955e+01,8.000000000000000000e+00
-9.068261568391535743e-01,1.971263727560695206e-02,-1.280292012689458227e-02,5.463868649136844891e-01,-9.445287030262501660e-02,9.393101874479274915e-01,1.916300000000000026e+01,8.000000000000000000e+00
-8.701023350841667892e-01,3.169424304905869155e-02,-5.111717200623990681e-02,6.422596076507420815e-01,-2.116352952808095086e-02,6.199539415899084638e-01,1.921199999999999974e+01,8.000000000000000000e+00
-8.144243826761886629e-01,1.370831083936706607e-01,-6.959878948791742292e-02,-2.472929730519059580e-02,-5.525350546400869048e-03,2.043038009829249158e-01,1.926200000000000045e+01,8.000000000000000000e+00
-7.976437633317001730e-01,1.793113243852834660e-01,-2.407453462087402046e-02,-4.211960308432637912e-01,7.110681908455110389e-02,-3.742272910478547931e-01,1.931200000000000117e+01,8.000000000000000000e+00
-9.330725760172560168e-01,3.262160289890724263e-01,5.759606174146597590e-02,-2.520290195215240669e-01,8.384531123283939236e-02,-3.956713062317597229e-01,1.936299999999999955e+01,8.000000000000000000e+00
-1.032027790930076350e+00,4.071086026054128726e-01,1.204706589192956895e-01,5.195922524149029220e-01,2.319416085973068434e-02,-1.991734559521366188e-01,1.941300000000000026e+01,8.000000000000000000e+00
-1.007480294442611335e+00,4.791250307675559705e-01,9.267849376683071072e-02,-5.593378200585765597e-02,9.795634455562227810e-03,-1.763976463041836418e-01,1.946199999999999974e+01,8.000000000000000000e+00
-9.175945357683493731e-01,2.760739681438394433e-01,1.817734577004093480e-02,3.643642105093232442e-02,-9.665884447839497018e-02,-2.389659955560708704e-01,1.951200000000000045e+01,8.000000000000000000e+00
-1.206394238196520474e+00,2.615985834560432058e-02,-5.117392184534601263e-02,-9.820897264988451281e-02,-2.728157427705186350e-02,-6.183633461985336144e-01,1.956200000000000117e+01,8.000000000000000000e+00
-1.077444362974462111e+00,1.733390935444861225e-01,9.876601590695829533e-03,-5.454474150157415796e-02,-2.199597976979057040e-02,-5.601031400283937867e-01,1.961299999999999955e+01,8.000000000000000000e+00
-9.285883506609730054e-01,6.639938775482076561e-02,-7.264147381027617756e-03,-5.041513674074992943e-03,-7.831486536074747096e-02,-4.617767194398721964e-01,1.966300000000000026e+01,8.000000000000000000e+00
-9.044993919561836737e-01,-2.250642250372939246e-01,3.224709169953464405e-02,-8.861150116369218566e-01,6.943504566997360516e-02,-9.302179091376128195e-01,1.971199999999999974e+01,8.000000000000000000e+00
-9.707536350100258726e-01,1.427458633392210364e-03,9.888246560774652250e-02,-2.861723642878475360e-01,1.019016239326917955e-01,-6.917010078805568840e-01,1.976200000000000045e+01,8.000000000000000000e+00
-9.661672175432987064e-01,-6.773918518669072575e-02,2.680692843793742175e-01,-2.367557992305503178e-01,1.873191846638830038e-01,-7.930885956565999484e-01,1.981200000000000117e+01,8.000000000000000000e+00
-1.028440729932101672e+00,-4.553147536670356516e-02,1.770586202933857323e-01,-1.636563117313591942e-01,2.997576014331551630e-02,-6.968881253546241883e-01,1.986299999999999955e+01,8.000000000000000000e+00
-9.852930350270403537e-01,3.539502894781930420e-02,1.084979606637468813e-01,-1.834082223767758146e-01,1.040284095382629226e-02,-4.140752330294912298e-01,1.991300000000000026e+01,8.000000000000000000e+00
-1.047086679626389127e+00,-7.715201972092783356e-02,1.058772586013163874e-01,-2.997389486458370556e-01,-2.995197384659746900e-02,-2.813191436530753653e-01,1.996199999999999974e+01,8.000000000000000000e+00
-9.341368723203388180e-01,-5.486027550305531963e-02,7.567391866075647011e-02,-1.640799031934681573e-01,5.322604936120929608e-02,-2.963296091067608162e-01,2.001200000000000045e+01,8.000000000000000000e+00
-9.652747068343717762e-01,-1.123640204143722815e-01,1.302495763999982903e-01,-2.345392376869503415e-01,7.691612757009877455e-02,-4.523352598478526110e-01,2.006200000000000117e+01,8.000000000000000000e+00
-9.958429152762795500e-01,-3.342660112723939980e-02,1.198282757175364865e-01,-1.097121865689146131e-01,1.105287504094518009e-01,-4.101834649870850780e-01,2.011299999999999955e+01,8.000000000000000000e+00
-9.803431480454729563e-01,-1.289735756290366110e-02,1.448876281076208750e-01,-2.044648324484764079e-01,5.684125550694749812e-02,-3.161744613841626084e-01,2.016300000000000026e+01,8.000000000000000000e+00
-9.565317819102725494e-01,-9.827058571521800345e-02,1.722663309729159931e-01,-4.297235318410882465e-01,4.161970740443114714e-02,-3.086156147687850737e-01,2.021199999999999974e+01,8.000000000000000000e+00
-9.527610554058810743e-01,-1.206478923315097707e-01,1.377040730407798341e-01,-4.458526901371419049e-01,4.852000475622527537e-02,-2.955088198076357142e-01,2.026200000000000045e+01,8.000000000000000000e+00
-1.051615589445456189e+00,-1.158822185042706343e-01,2.036867491820499865e-01,-2.373050156583703385e-01,1.279815765187498379e-02,-1.998114240635391059e-01,2.031200000000000117e+01,8.000000000000000000e+00
-1.199228419671226842e+00,-1.481606078210997712e-01,1.590086578638588988e-01,-1.391460722461431154e-01,9.268885357732965791e-02,-5.412814495838837864e-02,2.036299999999999955e+01,8.000000000000000000e+00
-1.172049322644370672e+00,2.827151828636687014e-02,1.500016210740940381e-01,4.697234794630924526e-01,1.135894324413786877e-01,3.698225297558345726e-01,2.041300000000000026e+01,8.000000000000000000e+00
-1.020872582500419679e+00,1.265275032911123421e-01,1.410192234933921838e-02,3.412001171809408984e-01,1.596145768272638210e-01,9.514360289537039383e-01,2.046199999999999974e+01,8.000000000000000000e+00
-1.005697696285711817e+00,8.667838768049138110e-02,-2.281467149474083675e-02,1.722000613314095541e-01,2.826162513270648602e-01,1.656808690024285768e+00,2.051200000000000045e+01,8.000000000000000000e+00
-1.161660660112221022e+00,-8.721087075975238190e-02,3.062416947427597930e-02,-1.714800258045180992e-01,2.472301425715843319e-03,1.850825236907751803e+00,2.056200000000000117e+01,8.000000000000000000e+00
-1.145392345714839166e+00,-2.174500732913177414e-01,1.344158056250324695e-01,3.214080074683159927e-01,-2.394295215120275377e-01,1.815776040597494090e+00,2.061299999999999955e+01,8.000000000000000000e+00
-1.046206466325410256e+00,-3.512687635700640493e-02,2.120045094540338321e-03,9.240515727691318570e-01,-2.047512860162936654e-01,1.481686313545188538e+00,2.066300000000000026e+01,8.000000000000000000e+00
-9.267095332764110349e-01,1.650347777038857142e-02,-4.867336726458244833e-02,6.670341293908753633e-01,-7.400269937939320253e-02,1.200537179220437789e+00,2.071199999999999974e+01,8.000000000000000000e+00
-8.809657412719966718e-01,-3.260390677295217643e-02,2.491576519308988293e-03,6.717420749588767226e-01,-1.949235227087042083e-02,8.524560511378179717e-01,2.076200000000000045e+01,8.000000000000000000e+00
-7.386345816969248634e-01,-3.135621069888169105e-02,-1.239672511291050883e-01,4.315599211309701921e-01,5.610533258049819200e-02,2.903690645994662645e-01,2.081200000000000117e+01,8.000000000000000000e+00
-7.480686395890409068e-01,1.249991154268500909e-01,-3.613342256978360062e-02,-1.737416770449393133e-01,1.665201681541397249e-01,-3.570540504631288248e-01,2.086299999999999955e+01,8.000000000000000000e+00
-9.144094879077047100e-01,4.272533023708528499e-01,1.106595155394078517e-01,-5.108404794274038485e-01,-4.576715890176497048e-03,-7.017305382599671182e-01,2.091300000000000026e+01,8.000000000000000000e+00
-1.077494903558311234e+00,4.782249914483183706e-01,1.213316935051255568e-01,3.647774857893911205e-01,2.440902313164032555e-02,-5.764538779271438651e-01,2.096199999999999974e+01,8.000000000000000000e+00
-1.013885484261999093e+00,4.799480354856932030e-01,9.004454295925057306e-02,1.882914487898081635e-01,1.204520735096463457e-01,-1.363398924471666829e-01,2.101200000000000045e+01,8.000000000000000000e+00
-9.469416230985430172e-01,1.984443008918517770e-01,-4.354067624614529897e-02,-1.205226075917977535e-01,-7.151757853776372076e-02,-3.262337580043882523e-01,2.106200000000000117e+01,8.000000000000000000e+00
-1.169653173098997190e+00,-8.923721549696914113e-02,-5.904061363631572107e-02,-4.749091699378162335e-01,-1.008348525797192995e-02,-5.265788621033752337e-01,2.111299999999999955e+01,8.000000000000000000e+00
-1.087709268884504921e+00,2.810643575051218757e-01,1.006132292137738443e-01,4.012278807319002993e-01,7.227564587068431579e-02,-1.675784602132279755e-01,2.116300000000000026e+01,8.000000000000000000e+00
-8.797369585921017698e-01,6.744132867781696405e-02,-1.589871081983953646e-02,-8.782612001737017948e-01,-1.944226055060025993e-01,-8.140205774915338921e-01,2.121199999999999974e+01,8.000000000000000000e+00
-1.008689174224936647e+00,1.740035919227439845e-02,-1.674404315934633486e-02,-2.989100238503067386e-01,4.690534996521342898e-02,-6.674770372620254522e-01,2.126200000000000045e+01,8.000000000000000000e+00
-9.544643547787170501e-01,7.448640855735255695e-02,1.220700180425412923e-01,-2.899024207606767378e-01,1.935331333397609654e-01,-5.520834268788071819e-01,2.131200000000000117e+01,8.000000000000000000e+00
-9.813693227551831821e-01,-8.921624070945921581e-02,2.188418876154510362e-01,-4.392236373367106594e-01,5.463303507313259366e-02,-7.017939851116689054e-01,2.136299999999999955e+01,8.000000000000000000e+00
-9.679254265782379907e-01,-3.514657690245763522e-02,1.725814855897991884e-01,-3.628704868617702584e-01,6.580309180604153318e-02,-6.498452725369860961e-01,2.141300000000000026e+01,8.000000000000000000e+00
-9.924806412765854180e-01,-2.644718909439792640e-02,1.454984347101911657e-01,-7.603531248636920259e-02,1.234959277287781820e-01,-5.031885553036488101e-01,2.146199999999999974e+01,8.000000000000000000e+00
-9.874703416199459571e-01,-5.451892616764655169e-02,1.436802841154069810e-01,-3.416497609130043911e-02,6.916166217177212305e-02,-4.805514974274597284e-01,2.151200000000000045e+01,8.000000000000000000e+00
-9.774615468996588064e-01,-7.694086933580659982e-02,1.129363833106259013e-01,-9.415085992112913471e-02,1.112885786450230202e-01,-3.963460963027775064e-01,2.156200000000000117e+01,8.000000000000000000e+00
-9.690531205826460326e-01,-8.196823221958986216e-02,1.051036044557081273e-01,-6.920468453509191764e-02,1.245642608108361860e-01,-4.670323068856091497e-01,2.161299999999999955e+01,8.000000000000000000e+00
-9.599561173159603111e-01,-1.179507940160936519e-01,8.426939432871487223e-02,-9.404965000637960371e-02,2.004938900123364731e-01,-5.058549174862919662e-01,2.166300000000000026e+01,8.000000000000000000e+00
-9.830012869855879742e-01,-9.675803918636746714e-02,1.083713185593000172e-01,-1.188237649955257123e-02,2.152048737644497167e-01,-4.687769640889219991e-01,2.171199999999999974e+01,8.000000000000000000e+00
-9.718161943042746831e-01,-8.623023200997874393e-02,1.062523330989568332e-01,-2.755116513254707300e-01,1.723109237063557841e-01,-4.528019088935730241e-01,2.176200000000000045e+01,8.000000000000000000e+00
-9.805699605570510347e-01,-9.959114708314474596e-02,1.795619253960837880e-01,-3.689276889367633094e-01,1.726141576052925841e-01,-4.675729475965194615e-01,2.181200000000000117e+01,8.000000000000000000e+00
-1.084753610832695614e+00,-1.341509821183551610e-01,2.235916801895954931e-01,-3.135948235748595159e-01,7.983935749872318743e-02,-2.783063665739529680e-01,2.186299999999999955e+01,8.000000000000000000e+00
-1.236963333527123954e+00,-1.133713051505804703e-01,6.138018837747317991e-02,-1.510923083617986273e-01,6.919878559625859682e-02,7.157807361441732852e-02,2.191300000000000026e+01,8.000000000000000000e+00
-1.143739035931262249e+00,4.404234101377457050e-02,7.834593732324073023e-02,2.031134849583605961e-01,4.855863957533056163e-02,5.480466633357130579e-01,2.196199999999999974e+01,8.000000000000000000e+00
-1.012405544624553233e+00,4.167856017336403485e-02,8.571125006714296057e-02,1.273376842571782852e-01,-9.023017288533965313e-03,1.042904393537681829e+00,2.201200000000000045e+01,8.000000000000000000e+00
-9.913827335672683594e-01,2.428152610350163467e-03,-8.488906163529866267e-02,4.111335857852208564e-01,1.380552012824755315e-01,1.686381116266830293e+00,2.206200000000000117e+01,8.000000000000000000e+00
-1.092421044634066529e+00,-1.284312843438683849e-01,3.950702818527719595e-02,1.854408464283921476e-01,-6.674336266454880540e-02,1.728093437134524013e+00,2.211299999999999955e+01,8.000000000000000000e+00
-1.096426448830894795e+00,-1.997227513411436728e-01,7.157275513082073104e-02,6.426602659626974301e-01,-1.990703495936222978e-01,1.578769263837864312e+00,2.216300000000000026e+01,8.000000000000000000e+00
-9.896635196776918386e-01,-2.366722541789011256e-04,-9.850861938819160946e-02,7.695204226601521924e-01,-9.391189391699480971e-02,1.244321685210585393e+00,2.221199999999999974e+01,8.000000000000000000e+00
-9.269718179472690167e-01,-9.011280703526455393e-04,-1.106220148740593226e-02,4.941669410204775348e-01,-9.827215914324662072e-02,1.027040029431331991e+00,2.226200000000000045e+01,8.000000000000000000e+00
-9.178740822789546172e-01,2.437103069629992182e-04,-5.276087305645067727e-02,4.360314048988057078e-01,-3.640647898672501326e-02,7.297856200755425959e-01,2.231200000000000117e+01,8.000000000000000000e+00
-8.623877948707667773e-01,1.009027876979210203e-01,-6.236797038788842451e-02,3.628999997128735111e-01,-5.367794450142113899e-02,4.799582780178813235e-01,2.236299999999999955e+01,8.000000000000000000e+00
-8.304629019428020342e-01,2.086201262730804085e-01,-9.214306466348781005e-03,-5.326532199902560272e-02,-1.948091239314299339e-02,3.263013678423098973e-02,2.241300000000000026e+01,8.000000000000000000e+00
-9.059174696908861568e-01,3.231010349184039732e-01,4.649457884091522109e-02,-5.648116815599570767e-02,6.119369894229672452e-03,-2.250665390984691316e-01,2.246199999999999974e+01,8.000000000000000000e+00
-9.477857736059647209e-01,2.710837567053190345e-01,1.387699462423449583e-02,3.020994893458345265e-01,5.216492203299973734e-02,-2.737531922181541399e-01,2.251200000000000045e+01,8.000000000000000000e+00
-9.775032836533009695e-01,3.926420269586823331e-01,5.002270952480808441e-02,-9.779091718430444648e-04,1.669230569338335246e-01,-2.290426114248044764e-01,2.256200000000000117e+01,8.000000000000000000e+00
-9.893617436111270536e-01,3.539565122067996339e-01,2.302646969333319027e-02,9.566897827705603263e-02,6.428727364898927099e-02,-3.868514438100797426e-01,2.261299999999999955e+01,8.000000000000000000e+00
-1.194179452790083751e+00,1.339898610803637313e-01,-1.725297914083951528e-02,1.132256017972825823e-01,-1.027909000751048990e-01,-6.845803233039523539e-01,2.266300000000000026e+01,8.000000000000000000e+00
-9.625604438224282244e-01,2.048200540415321957e-01,5.251528935438889295e-02,-2.050779410117265986e-02,-1.084511872510698777e-01,-6.918477466454424629e-01,2.271199999999999974e+01,8.000000000000000000e+00
-9.618037955353957447e-01,9.425560207922413503e-02,-7.460037641223755955e-02,-7.691597484606042812e-02,-4.645802155235899400e-02,-6.353523556346533097e-01,2.276200000000000045e+01,8.000000000000000000e+00
-9.500765788386642541e-01,-1.722587548998510618e-02,5.473232590388789690e-03,-8.312155739015384404e-01,7.063757955685485979e-02,-7.313985340912833033e-01,2.281200000000000117e+01,8.000000000000000000e+00
-1.002891075631701545e+00,6.768908787796170876e-03,1.570646356688837064e-01,-4.254026989262530423e-01,-9.532938489989756584e-03,-5.322504125705680433e-01,2.286299999999999955e+01,8.000000000000000000e+00
-9.679947684106506856e-01,-5.397176137678007940e-02,3.123898462960253974e-01,-1.317433109717424666e-01,-1.036016323255899152e-02,-5.404457488989313774e-01,2.291300000000000026e+01,8.000000000000000000e+00
-9.826304621155594887e-01,-5.647145613278198306e-02,2.075138810322182947e-01,7.800298855805902487e-02,-4.676534239630748824e-02,-5.403441714190628797e-01,2.296199999999999974e+01,8.000000000000000000e+00
-9.655528727490091390e-01,-3.915357219530187644e-02,6.037408471316728018e-03,6.938028914648043666e-02,4.686106445657247516e-02,-5.162109667898662213e-01,2.301200000000000045e+01,8.000000000000000000e+00
-9.795811031075434272e-01,-9.782087331561439836e-02,3.285810060469643995e-02,-2.521176220089879072e-01,3.798405665571844003e-02,-5.384343933997842724e-01,2.306200000000000117e+01,8.000000000000000000e+00
-9.436025889793974164e-01,-1.774487377951061984e-01,7.644304450328788525e-02,-6.506094865841849373e-01,1.736611816248426199e-01,-6.479795284384125553e-01,2.311299999999999955e+01,8.000000000000000000e+00
-9.731596606326690102e-01,-1.462513048306253449e-01,1.583123526767730160e-01,-4.322446738063046578e-01,3.010993814624267628e-01,-6.698129707422755263e-01,2.316300000000000026e+01,8.000000000000000000e+00
-1.013669561382922524e+00,-6.245967488534318740e-02,1.274485755321699276e-01,-2.781976158091049589e-01,2.272251050442913312e-01,-5.949971433937870646e-01,2.321199999999999974e+01,8.000000000000000000e+00
-1.002777855713385957e+00,-1.576934436922669200e-02,3.994113266997626616e-02,-4.515614031572927622e-01,1.140047360971650631e-01,-4.964987959412059948e-01,2.326200000000000045e+01,8.000000000000000000e+00
-9.659333571381842898e-01,-6.945208620827092449e-02,1.418359482894357426e-01,-7.287906614852401876e-01,5.045312784119632132e-02,-4.010478387604906603e-01,2.331200000000000117e+01,8.000000000000000000e+00
-9.858929056897022258e-01,-1.961355338574193030e-01,3.092165698828724385e-01,-5.140217147908990869e-01,1.344792535161274949e-01,-4.097712922414004089e-01,2.336299999999999955e+01,8.000000000000000000e+00
-1.173449389977615720e+00,-1.823640655717275183e-01,1.184319768517084065e-01,2.152929873600943345e-01,7.224321975508837812e-02,-9.454564500326766152e-02,2.341300000000000026e+01,8.000000000000000000e+00
-1.112937387053250848e+00,2.898708091743479841e-03,4.029458982108490017e-02,3.124256196782585482e-01,6.893535850484369676e-02,2.208140759227265326e-01,2.346199999999999974e+01,8.000000000000000000e+00
-1.099192258301810998e+00,-2.498862824223674686e-02,1.419949069277716136e-01,2.307326438230660609e-02,-1.067734011764137278e-02,7.490356445187094092e-01,2.351200000000000045e+01,8.000000000000000000e+00
-1.078905121615285845e+00,3.026053731617216885e-02,-6.739466352600193347e-03,2.320592460163406479e-01,-4.783705652557315724e-02,1.398197618596810354e+00,2.356200000000000117e+01,8.000000000000000000e+00
-1.080450754555121406e+00,-4.060705040863569343e-02,-9.154757154024552313e-02,9.540143811766857440e-02,6.692745263501273523e-02,1.924750327801827199e+00,2.361299999999999955e+01,8.000000000000000000e+00
-1.112198778075030869e+00,-1.658875685158324731e-01,-6.011179979976240088e-03,2.363505486486817131e-01,-2.675195795367076718e-02,1.766629122009613750e+00,2.366300000000000026e+01,8.000000000000000000e+00
-1.078617402283078341e+00,-1.468159321651197613e-01,-6.237193205120354633e-02,7.317459998724984427e-01,3.505126968580591501e-03,1.524984086500763336e+00,2.371199999999999974e+01,8.000000000000000000e+00
-9.792468810573538018e-01,3.829386161105049341e-02,5.275610223437572632e-02,6.171232107486528395e-01,-3.268053064567157107e-02,1.248460493811279770e+00,2.376200000000000045e+01,8.000000000000000000e+00
-9.050080417763867180e-01,3.491814037120418053e-03,-1.318472860281152438e-02,5.582503902706137389e-01,-1.351514973730943703e-01,1.002398844229520192e+00,2.381200000000000117e+01,8.000000000000000000e+00
-8.227622255535047557e-01,6.475551568946212588e-02,-8.320454862780292393e-02,4.675613188988349544e-01,-1.110629396581341854e-01,7.032916796063545251e-01,2.386299999999999955e+01,8.000000000000000000e+00
-8.124766754564938243e-01,1.540224957046111010e-01,-2.242465292241506772e-02,-6.349242570643783001e-02,-8.251396958046365582e-02,3.084502121634621341e-01,2.391300000000000026e+01,8.000000000000000000e+00
-8.262386591889493426e-01,2.278410865918850114e-01,5.222246825106093698e-02,-2.550837549014660643e-01,-5.389492325630566155e-02,-9.561658889490587399e-02,2.396199999999999974e+01,8.000000000000000000e+00
-9.267222366397286359e-01,3.129296953469218878e-01,6.582228353320238035e-02,2.290540001108480050e-01,-8.659946400542214984e-02,-3.876625455409430931e-01,2.401200000000000045e+01,8.000000000000000000e+00
-9.726045787367437745e-01,4.301677546107738337e-01,1.560652385411618118e-02,1.763211745845846834e-01,4.615354321771923674e-02,-4.001515314352835917e-01,2.406200000000000117e+01,8.000000000000000000e+00
-1.043842315016714872e+00,5.337792644311455392e-01,-5.246017981336566910e-02,-5.245962026300448056e-01,1.371577227756429762e-01,-6.736102879820078382e-01,2.411299999999999955e+01,8.000000000000000000e+00
-9.539879146968213153e-01,3.222111236412245061e-01,-4.135488779864609360e-02,-5.801877871671550224e-01,-1.699977523765621723e-01,-2.243846261189280378e-01,2.416300000000000026e+01,8.000000000000000000e+00
-1.143748775100923876e+00,-6.845497703217799657e-02,1.021596311122805467e-01,-1.004501266744646237e-01,1.491581040596609287e-01,-2.732204093041484816e-01,2.421199999999999974e+01,8.000000000000000000e+00
-1.009019659768827015e+00,1.985327910836013621e-01,2.788408304185041042e-01,7.725184825269401090e-01,-6.800613776383376829e-02,-5.161456089868148300e-01,2.426200000000000045e+01,8.000000000000000000e+00
-9.393619985838155273e-01,-1.025613524160150919e-01,-8.996126718058676530e-02,1.579682024845186772e-01,-2.079063028260697832e-01,-7.761304533317444632e-01,2.431200000000000117e+01,8.000000000000000000e+00
-9.407465749857506498e-01,-1.672890114028804942e-02,-1.062118113257588953e-01,-6.566843557293903233e-01,5.177912621046777686e-02,-9.110128962721214529e-01,2.436299999999999955e+01,8.000000000000000000e+00
-9.601254181018392675e-01,-5.095171906770103176e-02,1.265018135116506293e-01,-4.944608410885032446e-01,1.815125080320942330e-01,-7.531777857938994902e-01,2.441300000000000026e+01,8.000000000000000000e+00
-1.000975509352621362e+00,-2.855533465430782833e-02,3.049284601657394345e-01,-2.901988387788654311e-01,1.324043462688489770e-01,-6.854449639777214776e-01,2.446199999999999974e+01,8.000000000000000000e+00
-9.958792383067107679e-01,-7.955388585495073994e-02,2.400270762030771721e-01,1.382940166943807669e-01,1.030088953624260090e-01,-5.589107961762069809e-01,2.451200000000000045e+01,8.000000000000000000e+00
-1.008503599290454966e+00,-2.761009511885200579e-02,9.591320798737656972e-02,2.374519818833372986e-01,8.389066991295959785e-02,-5.643720236110171262e-01,2.456200000000000117e+01,8.000000000000000000e+00
-9.887139184847738571e-01,-6.792031287063962641e-02,-1.856453189584381103e-02,-5.003651106577249041e-02,6.271299876177066634e-02,-5.029082721281283863e-01,2.461299999999999955e+01,8.000000000000000000e+00
-9.632468599050862945e-01,-1.295932161467808208e-01,6.949766506593071935e-02,-2.633638715262970331e-01,7.566411316909397999e-02,-3.594065945967188092e-01,2.466300000000000026e+01,8.000000000000000000e+00
-9.281112765235107753e-01,-1.902507937711402364e-01,1.383123515750048493e-01,-3.567502080165708689e-01,1.927853413140351857e-01,-5.391916473929307951e-01,2.471199999999999974e+01,8.000000000000000000e+00
-9.979176624530537998e-01,-1.489611073916240480e-01,1.186898545271134059e-01,-4.837410916184669424e-02,2.228549624972384069e-01,-6.174780591934464491e-01,2.476200000000000045e+01,8.000000000000000000e+00
-1.014624385453192890e+00,-1.931890614721747806e-02,6.673466736811498046e-02,3.327059465452759240e-02,8.347614681144867321e-02,-4.782079645958647873e-01,2.481200000000000117e+01,8.000000000000000000e+00
-9.952528536254556801e-01,-7.612442553690537683e-02,7.148378043619102451e-02,-6.450559788725568344e-01,7.895241106880045157e-02,-3.675357625038156995e-01,2.486299999999999955e+01,8.000000000000000000e+00
-1.008256342616603130e+00,-1.962279839067974097e-01,1.582649670450303747e-01,-8.613428978571471273e-01,1.061888818872686879e-01,-2.867429786830762994e-01,2.491300000000000026e+01,8.000000000000000000e+00
-1.042104955573771585e+00,-1.632035839873594296e-01,1.778539720899902643e-01,-5.890807882175483901e-01,1.478114130741278731e-01,-1.429472893159653979e-01,2.496199999999999974e+01,8.000000000000000000e+00
-1.145359858836691114e+00,-1.371435528216571886e-01,1.943569953272285267e-01,-1.778412882055712685e-01,1.568256050246332189e-01,-4.393860352707522343e-02,2.501200000000000045e+01,8.000000000000000000e+00
-1.088341910876664986e+00,1.575004458709918301e-02,1.638224464644595368e-01,3.878321133144906341e-01,1.091035305261314203e-01,3.252225224362269573e-01,2.506200000000000117e+01,8.000000000000000000e+00
-1.008578316799062957e+00,1.169872537968576348e-01,3.865333936680229870e-02,5.378654498365014192e-01,8.626272375432837963e-04,1.007680126088482675e+00,2.511299999999999955e+01,8.000000000000000000e+00
-1.054280658657115399e+00,1.182316562938990900e-01,-1.610437581343253655e-01,2.707512990583052503e-01,1.724347720749520863e-01,1.872633833729363984e+00,2.516300000000000026e+01,8.000000000000000000e+00
-1.174549973447275075e+00,-1.810523693868597017e-01,-2.061138902179792537e-02,-8.706872073501112919e-01,-1.073258860552697147e-01,1.757542283976886832e+00,2.521199999999999974e+01,8.000000000000000000e+00
-1.162111939054778942e+00,-2.955509880276456225e-01,1.695879427987540544e-01,6.771085649006044482e-01,-1.388180645445595274e-01,1.717459993369730764e+00,2.526200000000000045e+01,8.000000000000000000e+00
-1.039709324256858913e+00,-3.679975474926094892e-02,-1.276329051903377920e-01,1.528898932743250949e+00,-4.723386356564458766e-02,1.464276733774744654e+00,2.531200000000000117e+01,8.000000000000000000e+00
-9.317129123415452963e-01,2.904309019901251537e-02,-1.025269155491845136e-01,5.645332787273337205e-01,-9.584751240237988912e-02,1.138482046177485385e+00,2.536299999999999955e+01,8.000000000000000000e+00
-8.622029770185488662e-01,-5.892406910226116734e-02,-8.482345886192307893e-02,8.748280515300724258e-02,-9.618721232243102048e-02,7.937939032464511602e-01,2.541300000000000026e+01,8.000000000000000000e+00
-8.791356814753722437e-01,1.674324135879572822e-02,-1.272442918658244458e-02,1.245697106553208117e-01,-3.449469847398968503e-02,5.919597599233774599e-01,2.546199999999999974e+01,8.000000000000000000e+00
-8.480056547488438179e-01,1.335653709490964847e-01,5.862855266958402062e-02,-4.167079339973071839e-02,-8.736097127868910905e-02,1.537900382382438313e-01,2.551200000000000045e+01,8.000000000000000000e+00
-8.581840433850571603e-01,3.005627902322917100e-01,1.016478596420239411e-01,2.482601873814665738e-01,-1.168257938061643408e-01,-1.854374785212840604e-01,2.556200000000000117e+01,8.000000000000000000e+00
-9.144985653720713037e-01,3.155642647640589660e-01,2.521322728438231062e-02,4.267948948852420266e-01,-1.341983934148635593e-01,-2.811567093523668626e-01,2.561299999999999955e+01,8.000000000000000000e+00
-9.736554044347400794e-01,3.709140688107430694e-01,1.560958961682468518e-02,8.123708895497580573e-02,-2.663157453839723465e-02,-2.608517457221422586e-01,2.566300000000000026e+01,8.000000000000000000e+00
-9.891392635104058195e-01,4.446309411222371111e-01,1.978307269020263340e-02,7.590265443401435219e-02,-1.249960379922000417e-02,-2.776723476804346946e-01,2.571199999999999974e+01,8.000000000000000000e+00
-1.010251814347839616e+00,3.181324575760093865e-01,-3.397225661910543981e-02,-3.201724303582593190e-01,-2.538074318533472540e-01,-6.089668423203582481e-01,2.576200000000000045e+01,8.000000000000000000e+00
-1.085772029098579949e+00,-1.236732773232850080e-01,-1.916856479032034641e-02,-6.074277769244009750e-01,-9.118588294766707958e-02,-4.302481087647260227e-01,2.581200000000000117e+01,8.000000000000000000e+00
-1.086988736768244035e+00,2.887324032008755093e-01,6.086258792510218507e-02,4.904579703552676417e-02,2.377722099978433756e-01,-5.783952598713326676e-01,2.586299999999999955e+01,8.000000000000000000e+00
-9.161381455518086137e-01,2.072846827655989710e-01,5.709008663590956628e-02,-5.565880192319657555e-02,-1.020736374127719122e-02,-4.079292902440611046e-01,2.591300000000000026e+01,8.000000000000000000e+00
-9.504985600960811354e-01,-1.324816333410016034e-01,1.039526127835392888e-01,-9.040465996941804416e-01,-2.782245812755755957e-02,-7.501345185778136582e-01,2.596199999999999974e+01,8.000000000000000000e+00
-1.041142007531565383e+00,2.138656791752190922e-01,7.863961504304102512e-02,-4.042651305215193558e-01,4.560389979977562402e-02,-4.797990085773502500e-01,2.601200000000000045e+01,8.000000000000000000e+00
-9.082515682544380908e-01,-1.528474199194627681e-01,1.094216645025035961e-01,-2.889239231509596051e-01,2.183756931068167595e-01,-5.395067414315104504e-01,2.606200000000000117e+01,8.000000000000000000e+00
-9.975764351590310497e-01,-8.150733493583854627e-02,2.521283922126048571e-01,-2.116649803870760890e-02,6.053195835427146315e-02,-6.714790156830101608e-01,2.611299999999999955e+01,8.000000000000000000e+00
-9.758633211256416695e-01,-4.192304247238498593e-02,1.398859314394160780e-01,-1.615975511104107976e-01,9.611054918923767065e-02,-6.497568883129518635e-01,2.616300000000000026e+01,8.000000000000000000e+00
-9.924396035472419220e-01,-5.943585469137957489e-02,9.084614170026056312e-02,-5.253019822011720935e-02,9.294018850375107554e-02,-5.537503605901981096e-01,2.621199999999999974e+01,8.000000000000000000e+00
-9.981470000923655661e-01,-4.245772337807811325e-02,8.125413045768258014e-02,-4.439648075339813066e-02,5.647187925264951502e-02,-4.572969548279156027e-01,2.626200000000000045e+01,8.000000000000000000e+00
-9.698973338771729180e-01,-9.193017792142488265e-02,1.341255011996295710e-01,-2.661436196220137718e-01,7.903772497916783379e-02,-4.450518302712495600e-01,2.631200000000000117e+01,8.000000000000000000e+00
-9.662296482135518394e-01,-1.223901673771877474e-01,1.065783700789966204e-01,6.723762533132322805e-02,9.781438719503496304e-02,-4.714878452391023100e-01,2.636299999999999955e+01,8.000000000000000000e+00
-9.746350032595485491e-01,-1.167297583435924074e-01,9.604260283797037834e-02,1.056044841111334620e-01,2.139846060618366130e-01,-4.412811878664995580e-01,2.641300000000000026e+01,8.000000000000000000e+00
-9.939213432780746871e-01,-6.913000211936838613e-02,8.331819774739306073e-02,-1.244066336254201210e-01,1.540691813117264219e-01,-5.499841554223056095e-01,2.646199999999999974e+01,8.000000000000000000e+00
-1.000956755225938632e+00,-1.603504243512021421e-01,1.428834791245204294e-01,-6.615786175868805241e-01,1.537565079354356046e-01,-3.724800092872496693e-01,2.651200000000000045e+01,8.000000000000000000e+00
-9.945482482344688568e-01,-1.799810641426613511e-01,1.087830874500423511e-01,-7.727469834404845361e-01,1.437398797314426990e-01,-3.260535335939115931e-01,2.656200000000000117e+01,8.000000000000000000e+00
-1.137573401838805065e+00,-1.485979020179183652e-01,2.209564335256808953e-01,-4.001109376999651412e-01,1.692975760913036920e-01,-2.871881855054766453e-01,2.661299999999999955e+01,8.000000000000000000e+00
-1.164697390314385128e+00,1.517451220104542794e-02,2.500471995512368872e-01,3.303667992956946797e-01,6.407160728084138057e-02,1.206848053082235639e-01,2.666300000000000026e+01,8.000000000000000000e+00
-1.088117859960910705e+00,2.994695509003702377e-02,7.378153109711063640e-02,4.119753345201174755e-01,-3.361122433363600455e-03,7.224403278564923703e-01,2.671199999999999974e+01,8.000000000000000000e+00
-1.022382128258989775e+00,7.816463541405579973e-02,-1.081522782830442314e-01,4.902955719885042640e-01,1.774988447744652587e-01,1.322286220113164434e+00,2.676200000000000045e+01,8.000000000000000000e+00
-1.093915554805921397e+00,-4.460945534333132095e-02,-7.679828837440130784e-02,1.005615001406676978e-01,2.333517991074628151e-01,1.983293116423453073e+00,2.681200000000000117e+01,8.000000000000000000e+00
-1.171305781421036363e+00,-1.485270465073925683e-01,6.706011751033534585e-02,3.455476546982467340e-02,2.683480518121855729e-02,1.977066997202812759e+00,2.686299999999999955e+01,8.000000000000000000e+00
-1.084612901415077602e+00,-1.636028916106423425e-01,1.324764928383412310e-01,7.374178781507115810e-01,-2.038230789692636047e-01,1.580221686682883320e+00,2.691300000000000026e+01,8.000000000000000000e+00
-9.423798565582179876e-01,-1.167561967669319446e-02,-4.892934407621926662e-02,1.118917490767812328e+00,-9.939539713750249195e-02,1.303074291094842074e+00,2.696199999999999974e+01,8.000000000000000000e+00
-8.891261799826359891e-01,6.451724391594929053e-03,-2.471589066903039783e-02,6.422120283053358580e-01,-1.219124951073009278e-01,1.078964055187363824e+00,2.701200000000000045e+01,8.000000000000000000e+00
-8.062081306903945421e-01,-3.135893149706120431e-02,-3.638716884152151665e-02,5.723442824844254817e-01,-1.540984974152319886e-01,6.098079378181837651e-01,2.706200000000000117e+01,8.000000000000000000e+00
-7.738998895460065253e-01,2.808132077996542547e-02,-1.082776781082704920e-01,4.908659707511336262e-02,-9.455313991517921846e-02,1.050108540045917582e-01,2.711299999999999955e+01,8.000000000000000000e+00
-8.323965622357027971e-01,2.235400885711241181e-01,3.478603535865151114e-02,-3.169596411691772975e-01,-2.951627056725854986e-02,-4.393158360120655859e-01,2.716300000000000026e+01,8.000000000000000000e+00
-9.997996165211009423e-01,4.373961077001712328e-01,9.133710363460792458e-02,2.674348721432598386e-01,-1.359927864388571772e-01,-5.975919027366899394e-01,2.721199999999999974e+01,8.000000000000000000e+00
-1.035839508370842266e+00,4.431161906442559473e-01,-2.093270336563611903e-02,1.669701811397062419e-01,5.192450638093441817e-02,-3.678738841692127393e-01,2.726200000000000045e+01,8.000000000000000000e+00
-9.581090137155351405e-01,4.181890440274793619e-01,3.609679611615101980e-02,-5.181198256517369760e-01,7.941153199140384145e-02,-2.112965386280023505e-01,2.731200000000000117e+01,8.000000000000000000e+00
-9.900663676586696216e-01,1.295504776290140325e-01,7.042335298172944062e-03,-1.062607387874314330e-01,-7.353831219408432651e-02,-3.517074428243007200e-01,2.736299999999999955e+01,8.000000000000000000e+00
-1.177289902163662250e+00,-3.499677436163613209e-02,5.797472668823720754e-02,-1.923030447090484096e-01,7.057026075857306124e-02,-4.443252704526868269e-01,2.741300000000000026e+01,8.000000000000000000e+00
-1.081325018162208496e+00,3.906480876214047937e-01,1.169664664944722182e-01,5.000042664467333475e-01,-1.053023467226723991e-01,-3.052181842689024593e-01,2.746199999999999974e+01,8.000000000000000000e+00
-8.369194756711344496e-01,-1.566145684843064101e-01,-9.922912313610887658e-02,-9.840122352348197321e-01,-1.558100648207721151e-01,-7.240104533994569103e-01,2.751200000000000045e+01,8.000000000000000000e+00
-9.974986054541107316e-01,3.162906008696499821e-02,3.206074042599034446e-02,-4.259677368674950060e-01,1.284043435519046095e-01,-5.439828501919746762e-01,2.756200000000000117e+01,8.000000000000000000e+00
-9.780144615727592861e-01,-3.176193436207068455e-02,1.524040464899126812e-01,-6.093728204009314642e-02,1.198660008119141890e-01,-4.650994881480364773e-01,2.761299999999999955e+01,8.000000000000000000e+00
-9.928791241952265034e-01,-7.855264194472579009e-02,2.424135770881840346e-01,-4.790768062639803593e-01,4.951393776821275128e-02,-5.965512074544072618e-01,2.766300000000000026e+01,8.000000000000000000e+00
-9.543212216510139623e-01,-1.409419303170827975e-01,1.481685832483264353e-01,-1.349781308194690221e-01,2.129951786459664820e-02,-6.214326205654338020e-01,2.771199999999999974e+01,8.000000000000000000e+00
-9.773140020098821656e-01,-1.193605193774955470e-01,4.009266517945268837e-02,-1.575310172616811166e-01,1.226483634243147741e-01,-6.508986783444669078e-01,2.776200000000000045e+01,8.000000000000000000e+00
-1.006020221287948990e+00,-4.384959095895286929e-02,5.539278638606307675e-02,-1.079732400310711993e-01,1.226969064122768183e-01,-5.375603474163643813e-01,2.781200000000000117e+01,8.000000000000000000e+00
-9.860275838963247219e-01,-4.832554120806252518e-02,1.464641269248249111e-01,-3.609710759521023715e-01,1.166132264908768812e-01,-4.744889836898657509e-01,2.786299999999999955e+01,8.000000000000000000e+00
-9.732472346374402283e-01,-1.073209382543345025e-01,1.630520028391931331e-01,-3.741094257510849119e-01,1.157446830336162080e-01,-5.628976628062463128e-01,2.791300000000000026e+01,8.000000000000000000e+00
-9.867385184280689225e-01,-3.214681599046983335e-02,1.088165529755953792e-01,-6.198428694971189895e-02,1.636421681715431176e-01,-5.438536305027451556e-01,2.796199999999999974e+01,8.000000000000000000e+00
-1.005722488472673426e+00,-2.441407300073033734e-02,1.125686302853276394e-01,-1.096760168630664667e-01,1.326977277349556394e-01,-5.199333161627743838e-01,2.801200000000000045e+01,8.000000000000000000e+00
-9.905991926198479680e-01,-5.296580867041274232e-02,1.279407526922923810e-01,-4.251215110233393935e-01,9.187632451123553534e-02,-3.773053752834387709e-01,2.806200000000000117e+01,8.000000000000000000e+00
-9.554042647912268649e-01,-1.775778475494752540e-01,1.754680000028755182e-01,-6.717698128917439782e-01,1.311287524430862494e-01,-2.952843095063981682e-01,2.811299999999999955e+01,8.000000000000000000e+00
-1.123490247181005763e+00,-2.359503656044613928e-01,1.973350049156148422e-01,-1.894603883039362446e-01,1.481568341140577227e-01,-2.288413593367512600e-01,2.816300000000000026e+01,8.000000000000000000e+00
-1.134346097689188815e+00,-1.349237539498608363e-01,8.531223232895550346e-02,1.293537883138237699e-01,2.137468273101405525e-01,-1.419616844650246623e-01,2.821199999999999974e+01,8.000000000000000000e+00
-1.089266661397896296e+00,-5.231285893656049263e-02,6.204825648395688453e-02,2.765754285408662527e-01,1.270772475709417704e-01,2.827022805903346980e-01,2.826200000000000045e+01,8.000000000000000000e+00
-9.798225368813898717e-01,6.962504224983287471e-02,3.016180942843555909e-02,4.684083823015901260e-02,3.709986504729702317e-02,7.676861731160852242e-01,2.831200000000000117e+01,8.000000000000000000e+00
-1.019633808603327640e+00,5.746256287548127950e-02,-3.319032923629872123e-02,-5.458983859131737171e-02,9.270229611250360713e-02,1.400325532284618202e+00,2.836299999999999955e+01,8.000000000000000000e+00
-1.165499503064066467e+00,-7.135079298533988923e-02,4.109012449630376068e-02,3.767524879170969926e-02,-1.056348757312585845e-01,1.860620079145417716e+00,2.841300000000000026e+01,8.000000000000000000e+00
-1.151723379322300733e+00,-1.947155360574341632e-01,3.685684160887379296e-02,5.712020689908235971e-01,-2.832943956710098354e-01,1.899129092615228442e+00,2.846300000000000097e+01,8.000000000000000000e+00
-1.094788428145111236e+00,-7.942931173705171377e-02,-1.182453390859920239e-01,9.031155580729542942e-01,-1.951610748082279467e-01,1.621912850427596142e+00,2.851300000000000168e+01,8.000000000000000000e+00
-9.713554231310249643e-01,-9.648886241608169850e-03,-1.789004659811593845e-02,5.011130578607865260e-01,-7.415707899724199859e-02,1.418540051399107993e+00,2.856200000000000117e+01,8.000000000000000000e+00
-8.614016092259181301e-01,-4.624706640968761356e-02,2.419633617900054587e-02,3.980899175887914199e-01,-9.221537371684625228e-02,9.668159060508848546e-01,2.861299999999999955e+01,8.000000000000000000e+00
-7.351220809733447492e-01,-2.285962488290515029e-02,-8.222180783300350737e-02,4.334545023661424135e-01,-5.466413051505915333e-02,4.953735001822409112e-01,2.866300000000000026e+01,8.000000000000000000e+00
-7.348359920337341755e-01,1.043800725197313317e-01,2.872086600233338116e-03,1.320518181777510791e-01,3.804935913387869073e-02,-1.474934489116822844e-01,2.871300000000000097e+01,8.000000000000000000e+00
-9.050163694931898650e-01,4.358509236616667226e-01,7.664260292988360479e-02,-5.158130359892334482e-01,-1.030514968247879110e-01,-6.250966094233697534e-01,2.876300000000000168e+01,8.000000000000000000e+00
-9.924191147596092000e-01,4.631452373186083493e-01,1.085243046445419912e-01,5.754119421729148032e-02,-1.016253943144498862e-03,-5.054632326234451689e-01,2.881200000000000117e+01,8.000000000000000000e+00
-9.999451391630133079e-01,3.611938075207218324e-01,1.318594554240906103e-01,3.647750035008756053e-01,4.029190919621191552e-02,-1.813523549677430735e-01,2.886299999999999955e+01,8.000000000000000000e+00
-1.261469200645088939e+00,1.716245132606798174e-01,1.402683849125789008e-02,-4.267081264518003680e-02,-6.407415116954313927e-02,-4.821194129802743866e-01,2.891300000000000026e+01,8.000000000000000000e+00
-9.690190676259875513e-01,1.193705377433196685e-01,-1.499849893189167047e-02,4.253650611060336151e-01,-7.050760236968636741e-02,-5.639684672155962364e-01,2.896300000000000097e+01,8.000000000000000000e+00
-8.908990569442594154e-01,1.135537239936336984e-01,-4.270951943062854805e-02,1.940262310466514817e-01,-4.154838316166753476e-02,-5.513262070823766736e-01,2.901300000000000168e+01,8.000000000000000000e+00
-9.972589639459819022e-01,-2.005604721060469942e-01,-9.403722073186720348e-03,-1.157275461801277716e+00,6.238945174267106208e-02,-1.019525716592277531e+00,2.906200000000000117e+01,8.000000000000000000e+00
-9.519725125481098837e-01,3.146982361382290316e-02,8.840564050235406868e-02,-1.015877453176220191e-01,1.731656407098100536e-01,-6.860748141312972281e-01,2.911299999999999955e+01,8.000000000000000000e+00
-1.026225498515617396e+00,-3.330302407001748538e-02,2.448524771768781638e-01,-1.961614687128890033e-01,1.556865251104230796e-01,-7.183100648919195086e-01,2.916300000000000026e+01,8.000000000000000000e+00
-9.795689042875738162e-01,-4.102083603723564315e-02,1.864863099825574133e-01,-5.061294937730640431e-01,2.187518187563921787e-02,-7.068469024806726120e-01,2.921300000000000097e+01,8.000000000000000000e+00
-9.917492655186574968e-01,-7.916139476996712776e-02,1.047185950497533796e-01,-2.303739919748410137e-01,7.014990632328590991e-02,-5.666276137932928503e-01,2.926300000000000168e+01,8.000000000000000000e+00
-9.663258843371490547e-01,-1.196632831423771054e-01,9.443075614872861734e-02,-1.478415383055989296e-01,8.438420583132075214e-02,-4.334515015269539973e-01,2.931200000000000117e+01,8.000000000000000000e+00
-9.721076377173030192e-01,-1.564530010412079897e-01,1.362570001524478491e-01,-1.664275056790161522e-01,1.162410288921608414e-01,-4.846428069786263282e-01,2.936299999999999955e+01,8.000000000000000000e+00
-9.758419650366271236e-01,-9.901771298881688332e-02,1.427330394544794046e-01,-3.353016109824159818e-02,1.117879805230292678e-01,-3.998443681980028419e-01,2.941300000000000026e+01,8.000000000000000000e+00
-9.539843335149840176e-01,-1.352206352913753462e-01,8.898036759589825206e-02,-1.685669370581690252e-01,1.451563369354984534e-01,-5.166208773575340363e-01,2.946300000000000097e+01,8.000000000000000000e+00
-1.001818647459405742e+00,-1.032767540573477361e-01,8.329764514872785297e-02,-6.928833778417013700e-02,1.449217245944013910e-01,-4.795598572966578987e-01,2.951300000000000168e+01,8.000000000000000000e+00
-1.010340481410062718e+00,-9.950159717081638600e-02,6.869864851737761402e-02,-3.704902348699959935e-01,1.401260391519024429e-01,-3.775145313210135356e-01,2.956200000000000117e+01,8.000000000000000000e+00
-9.985471789250605079e-01,-1.374543241032374907e-01,1.577517281855720377e-01,-6.990673901717191496e-01,1.490961279829462194e-01,-3.298937116690696669e-01,2.961299999999999955e+01,8.000000000000000000e+00
-1.203533679022392278e+00,-1.584502240562273290e-01,2.182065178573810438e-01,-4.066502526153943364e-01,2.531960743770114708e-01,-2.228461627699002412e-01,2.966300000000000026e+01,8.000000000000000000e+00
-1.160250762288191684e+00,5.807692312822776426e-02,8.742150293928786786e-02,-1.541439942060648417e-02,1.573524807323129632e-02,1.618933389947205814e-01,2.971300000000000097e+01,8.000000000000000000e+00
-1.071414367103839194e+00,2.058424952350564330e-01,1.434736744188962188e-01,3.839776620520522488e-01,-1.468511674631351460e-01,9.935340649937411950e-01,2.976300000000000168e+01,8.000000000000000000e+00
-1.111211943955599413e+00,1.150528566190009983e-01,-2.718012444408017883e-02,1.860994985343696617e-01,2.996572757512694363e-02,2.005302705268980468e+00,2.981200000000000117e+01,8.000000000000000000e+00
-1.088846518510618866e+00,-3.343923582894821056e-01,-3.786578381604850663e-02,-2.227997098874188661e-02,-2.457548082652711297e-01,2.178197340120588965e+00,2.986299999999999955e+01,8.000000000000000000e+00
-1.118979578133348252e+00,-2.364441376881744605e-01,8.311022023590297625e-02,6.989218180070368991e-01,-1.805518211609003221e-01,1.536332726761277856e+00,2.991300000000000026e+01,8.000000000000000000e+00
-9.561404153225068203e-01,-1.917009428319767228e-02,-3.840766366992821174e-02,1.217392069778676866e+00,5.507643436384866698e-02,1.275393634811308186e+00,2.996300000000000097e+01,8.000000000000000000e+00
-8.725970197884459489e-01,-5.521818100564188786e-02,-7.485041651170513954e-02,6.077405173694705454e-01,-2.586689813103148008e-02,8.956435367846345974e-01,3.001300000000000168e+01,8.000000000000000000e+00
-8.395056996180084719e-01,-1.771336938463718633e-02,-1.527464005161832117e-01,5.467479034281869099e-01,7.532306615216592845e-03,5.454321801537770353e-01,3.006200000000000117e+01,8.000000000000000000e+00
-8.292377950168923206e-01,9.382700904378978024e-02,-2.384463645919968761e-02,-3.161332914757321311e-02,4.217357108058754356e-02,1.925596941151758168e-01,3.011299999999999955e+01,8.000000000000000000e+00
-8.965928658520112560e-01,3.511232046044510113e-01,1.098275028203353765e-01,-2.762348682696958990e-01,-5.562578556712918093e-02,-2.077891504630838548e-01,3.016300000000000026e+01,8.000000000000000000e+00
-9.632796288779481575e-01,2.938350151633687957e-01,3.832646222247383661e-02,-5.452007844064728909e-02,-6.341387224458175376e-02,-5.341723294132824096e-01,3.021300000000000097e+01,8.000000000000000000e+00
-9.945488660426835548e-01,2.721811489084416391e-01,5.872940097313435193e-02,-1.599941529671011220e-01,6.027989127338571895e-02,-2.904262440520868904e-01,3.026300000000000168e+01,8.000000000000000000e+00
-9.433516284513391303e-01,3.758256784171489229e-01,9.312865284340753058e-02,2.006588574356489296e-01,-2.018209352278056007e-02,-5.123735297151456314e-02,3.031200000000000117e+01,8.000000000000000000e+00
-9.534232767746306791e-01,1.652001634228627835e-01,1.078385599783649937e-02,-1.503931773992077947e-01,-1.273761213244506973e-01,-4.235696038854049883e-01,3.036299999999999955e+01,8.000000000000000000e+00
-1.251570392760691375e+00,-1.460677314445213773e-02,1.387135055696470110e-02,1.377677660984715294e-02,5.627568287423758558e-02,-5.083038881622851113e-01,3.041300000000000026e+01,8.000000000000000000e+00
-9.803964356132329749e-01,2.604886972346933116e-01,1.217913074451994621e-01,7.689388531624461454e-01,-6.209085100909887689e-02,-3.264036647928387214e-01,3.046300000000000097e+01,8.000000000000000000e+00
-8.598411780711557872e-01,-2.755688785866948765e-01,-7.639058623493152900e-02,-8.339419142590879241e-01,-2.677351219774726232e-02,-9.299666322161588283e-01,3.051300000000000168e+01,8.000000000000000000e+00
-9.931980035635582515e-01,1.874697966327074821e-03,2.902774185005351296e-02,-3.932552241738492826e-01,1.131441908174846550e-01,-7.873845476961609524e-01,3.056200000000000117e+01,8.000000000000000000e+00
-9.883875057850879386e-01,-3.372739059992683336e-02,1.611930756395661968e-01,5.714751778006033067e-02,1.827986749462932048e-01,-5.950699282158474768e-01,3.061299999999999955e+01,8.000000000000000000e+00
-1.011759622292018879e+00,-5.941284427899810178e-02,2.398105880455159988e-01,-1.876574303365982077e-01,1.170028573727541765e-01,-6.617895047373516526e-01,3.066300000000000026e+01,8.000000000000000000e+00
-9.876083641534894042e-01,-4.827995359378102480e-02,8.760391862339697577e-02,-3.183508251664703970e-01,6.618440042742548823e-02,-5.742619896394609569e-01,3.071300000000000097e+01,8.000000000000000000e+00
-9.953367298865304358e-01,-6.019201259640379748e-02,8.779254832465167857e-02,-2.593905638892456955e-01,3.927820363738986076e-02,-3.749435053103041260e-01,3.076300000000000168e+01,8.000000000000000000e+00
-9.562870742362719056e-01,-1.459926358206582453e-01,1.419370717720664921e-01,-3.620834976837088437e-01,5.449391845768841725e-02,-4.039543747638641991e-01,3.081200000000000117e+01,8.000000000000000000e+00
-9.551415208600539941e-01,-1.889215484290809322e-01,1.188595127368882870e-01,-2.968417227579744910e-01,1.414186396300357307e-01,-4.806206250364266630e-01,3.086299999999999955e+01,8.000000000000000000e+00
-9.915867604248667089e-01,-1.292892539706682331e-01,9.216251150579093943e-02,-6.381203423092571270e-02,1.584920882455020108e-01,-4.256647185482272389e-01,3.091300000000000026e+01,8.000000000000000000e+00
-9.799733720973330398e-01,-7.184634274091949990e-02,9.167950396760764231e-02,-1.206917971351019608e-01,1.537931760325919606e-01,-4.193768371503533432e-01,3.096300000000000097e+01,8.000000000000000000e+00
-9.834093976210228627e-01,-5.796659563237749335e-02,7.169379485222676651e-02,-3.943169831573145045e-01,1.633603111995009793e-01,-5.052726668760846307e-01,3.101300000000000168e+01,8.000000000000000000e+00
-9.797876350430800851e-01,-1.236175300967522900e-01,1.857486707950029570e-01,-4.583971794203544614e-01,1.515395889660719198e-01,-3.843779841765568306e-01,3.106200000000000117e+01,8.000000000000000000e+00
-1.068928963855837244e+00,-2.049446238577072033e-01,2.180306809433420201e-01,-1.655580086878192803e-01,1.359185104552908807e-01,-2.997440367421295160e-01,3.111299999999999955e+01,8.000000000000000000e+00
-1.227149292869168296e+00,-7.324042362989183208e-02,1.335975181062665496e-01,3.163453498873234904e-01,2.509862790355607554e-02,7.206750208105625229e-03,3.116300000000000026e+01,8.000000000000000000e+00
-1.176370623553180561e+00,-2.364865280867073372e-02,9.141250372816236980e-02,4.451170826278853521e-01,-4.293081302699373880e-02,4.777239373539460265e-01,3.121300000000000097e+01,8.000000000000000000e+00
-1.037073884756161579e+00,-1.860569487964474494e-02,7.158777209891352411e-02,3.086256721718130258e-01,-6.343334399189741457e-02,9.157634842787100160e-01,3.126300000000000168e+01,8.000000000000000000e+00
-9.477954374656457626e-01,-6.585639039573929106e-03,-1.465547560834296048e-01,4.518035956927414776e-01,2.078996087085951960e-01,1.546708470851561046e+00,3.131200000000000117e+01,8.000000000000000000e+00
-1.069260026983039236e+00,-9.858103648890045867e-02,-9.924581001373333766e-02,1.823829814705455188e-01,2.339113436404375856e-01,1.871653975140445514e+00,3.136299999999999955e+01,8.000000000000000000e+00
-1.111454357868983944e+00,-1.706089466846633373e-01,4.802504773539346961e-02,1.997678008489620349e-01,1.229878616147659642e-01,1.724327489653086687e+00,3.141300000000000026e+01,8.000000000000000000e+00
-9.977048540601420878e-01,-3.966401515422952884e-02,-3.368141583322392663e-02,3.516767751975492518e-01,9.505471169595021419e-02,1.396890761550036997e+00,3.146300000000000097e+01,8.000000000000000000e+00
-9.200539546196360163e-01,8.158408735236793996e-03,1.491794250198380002e-02,2.389096437675583273e-01,-3.293941349669276403e-02,1.142782834106678802e+00,3.151300000000000168e+01,8.000000000000000000e+00
-8.688676846777824148e-01,-9.722715366280745147e-03,2.161448419506203922e-02,1.435443238170544533e-01,-1.118970648275486590e-01,7.740500789052215946e-01,3.156200000000000117e+01,8.000000000000000000e+00
-8.287580358376736012e-01,5.418521958969600011e-02,2.888081935849139484e-02,2.702786305287351865e-01,-2.044068158608992047e-01,3.634856281529947886e-01,3.161299999999999955e+01,8.000000000000000000e+00
-8.019402401476616316e-01,1.219841127855236101e-01,-1.496219363334078123e-02,1.141514784767867080e-01,-2.019627697847540537e-01,-1.487489107546814127e-01,3.166300000000000026e+01,8.000000000000000000e+00
-9.066452534909714700e-01,2.430108389510236278e-01,-1.848525102612720225e-02,-1.239427446122071536e-01,-3.341441458837478978e-02,-4.774201789286968700e-01,3.171300000000000097e+01,8.000000000000000000e+00
-9.919824325038761881e-01,3.759051227381980942e-01,2.558833493182649521e-02,2.166727370384786688e-01,6.085196347263146371e-02,-3.943498170638416456e-01,3.176300000000000168e+01,8.000000000000000000e+00
-1.045253046502339078e+00,5.073116490885680729e-01,4.109390511887160008e-02,1.355496569977730770e-01,7.224899001960231881e-02,-4.780944664441440506e-01,3.181200000000000117e+01,8.000000000000000000e+00
-1.107917679425127089e+00,4.407683533480726834e-01,2.368710815459476246e-02,-4.723713028132985881e-01,-1.634765564416932049e-01,-3.555940350844760678e-01,3.186299999999999955e+01,8.000000000000000000e+00
-1.091092806246716895e+00,7.929743428460185595e-02,8.561449498813754680e-03,5.852321317929436162e-02,-2.368637517435050466e-01,1.639778360303804083e-01,3.191300000000000026e+01,8.000000000000000000e+00
-9.211199290147916718e-01,5.759464325638423421e-02,3.715940320433969157e-02,-6.387801865053177597e-02,4.427865977985730173e-02,-3.892159574374797204e-01,3.196300000000000097e+01,8.000000000000000000e+00
-1.018339705202466083e+00,7.493699486416365019e-02,1.355266734192910050e-01,6.699595702324375734e-01,-1.019717696239982735e-01,-3.886631543806446931e-01,3.201299999999999812e+01,8.000000000000000000e+00
-8.886665766176624626e-01,-2.290161114502891893e-01,-1.357628655202567924e-01,-6.905468905237106547e-01,6.083907570010180926e-02,-8.527230574736766044e-01,3.206300000000000239e+01,8.000000000000000000e+00
-1.007463334822561674e+00,2.928923320938743406e-03,4.887647595706147430e-02,-6.504182991674458680e-01,1.319103773569351157e-01,-7.669970900809258696e-01,3.211200000000000188e+01,8.000000000000000000e+00
-9.863443534892294418e-01,-6.979904422462575309e-02,2.367278110655609002e-01,-1.608489702168834912e-01,1.472976366094445877e-01,-6.289041237886993096e-01,3.216299999999999670e+01,8.000000000000000000e+00
-1.005899904917101573e+00,4.110471892592398868e-02,3.418899073556312951e-01,-3.231095396922823437e-01,3.804598416604634131e-02,-6.947181101393176128e-01,3.221200000000000330e+01,8.000000000000000000e+00
-9.878935578597711764e-01,-1.974546964275905592e-02,1.078904502490869860e-01,-2.868845558082338543e-01,4.280435409249718631e-02,-5.993002141538052996e-01,3.226299999999999812e+01,8.000000000000000000e+00
-9.820209090112232975e-01,-6.065696103771931608e-02,6.631070198204516361e-03,5.549491152138523453e-02,6.680239845223683026e-02,-3.941368479526348167e-01,3.231300000000000239e+01,8.000000000000000000e+00
-9.570722891244720643e-01,-1.202003113331080036e-01,1.033533625748153939e-01,-1.829911974863843993e-01,8.917144738222819444e-02,-4.772091866080351297e-01,3.236200000000000188e+01,8.000000000000000000e+00
-9.620561142447929814e-01,-2.077070946339898416e-01,1.288550041721429062e-01,-4.095445850993637005e-01,1.679217320945155800e-01,-6.713054406123925011e-01,3.241299999999999670e+01,8.000000000000000000e+00
-9.882695103162382200e-01,-8.996482889707593800e-02,1.632845057094136076e-01,3.854239020922821390e-02,2.060808807751491334e-01,-5.586129666616921341e-01,3.246200000000000330e+01,8.000000000000000000e+00
-1.007665436957688954e+00,-3.044402455592373768e-02,1.338219982291337928e-01,-7.604623519043614277e-02,1.604172508543967313e-01,-5.073280403919218084e-01,3.251299999999999812e+01,8.000000000000000000e+00
-9.964361529605231249e-01,-1.037481456246303058e-01,1.028756385841800014e-01,-3.924705386700702014e-01,1.495622646548060430e-01,-4.254241468319278630e-01,3.256300000000000239e+01,8.000000000000000000e+00
-1.003152827911832690e+00,-1.834883572986392708e-01,1.085209518049346650e-01,-5.987303065189525375e-01,1.484241397283422859e-01,-2.839186732047878636e-01,3.261200000000000188e+01,8.000000000000000000e+00
-1.112577552101027267e+00,-2.053623242076467181e-01,1.800073013892958818e-01,-3.353931189959715176e-01,1.617679152895865335e-01,-2.557169510887963848e-01,3.266299999999999670e+01,8.000000000000000000e+00
-1.155234667321900499e+00,-1.040200141584627369e-01,1.558410469309918223e-01,2.065431150983137454e-01,9.984543894374843520e-02,-5.720453053283169886e-02,3.271200000000000330e+01,8.000000000000000000e+00
-1.076177436475102223e+00,2.312104440027440422e-02,9.990238890373263903e-02,6.013606930805235340e-01,-4.692206042658025184e-02,5.555689847961723382e-01,3.276299999999999812e+01,8.000000000000000000e+00
-1.026632278394761677e+00,1.105001620246664762e-01,-3.066649903514671784e-03,4.993606279985306484e-01,3.285601606388980495e-02,1.184856531198168916e+00,3.281300000000000239e+01,8.000000000000000000e+00
-1.073672411584520869e+00,-1.090931759738194423e-02,-1.472892521511341424e-01,1.591142863604905200e-01,3.039380527787510222e-01,2.038129226838875319e+00,3.286200000000000188e+01,8.000000000000000000e+00
-1.162961990533802892e+00,-1.404208714083741982e-01,1.181390790734479779e-01,9.154279176110291516e-02,2.125356882638286191e-02,2.006184473052996964e+00,3.291299999999999670e+01,8.000000000000000000e+00
-1.089467062076986625e+00,-1.475703852551389361e-01,1.692899931108791667e-01,7.626754293667510343e-01,-9.232413519885337982e-02,1.800521361370685414e+00,3.296200000000000330e+01,8.000000000000000000e+00
-1.007770536810924433e+00,-2.360906035665589001e-02,-7.136504288610448499e-02,8.536490052174524612e-01,-1.693974864224805921e-01,1.465770822798661221e+00,3.301299999999999812e+01,8.000000000000000000e+00
-8.784252737653309717e-01,1.464506293232524861e-02,-3.494074872972020851e-02,6.326175866848016138e-01,-1.338942358533797283e-01,1.113329500173779740e+00,3.306300000000000239e+01,8.000000000000000000e+00
-7.958460178334447743e-01,1.762231968552296218e-02,-5.217775529105093957e-02,3.181157802357640896e-01,-9.447769917866755129e-02,6.274957844904234250e-01,3.311200000000000188e+01,8.000000000000000000e+00
-7.531394692331475627e-01,7.366433287520675333e-02,-1.014350075178198224e-01,-5.309835095011701533e-02,-3.289619468242455103e-02,1.867636929945036897e-02,3.316299999999999670e+01,8.000000000000000000e+00
-7.934227277100017739e-01,1.889513546695214541e-01,-3.028829995926925547e-02,-3.199793767193424010e-01,6.056283829094823851e-02,-4.354527828359701092e-01,3.321200000000000330e+01,8.000000000000000000e+00
-9.458093000041039033e-01,4.436234358929476151e-01,1.037685805158445190e-01,-2.839911871031236545e-01,4.549139423683221800e-02,-5.711954844810390730e-01,3.326299999999999812e+01,8.000000000000000000e+00
-1.024990097747530360e+00,5.471277521187870585e-01,6.610646674522910327e-02,-1.398491342077657906e-01,7.588355746161709603e-02,-6.809824159457980031e-01,3.331300000000000239e+01,8.000000000000000000e+00
-1.057241097687475317e+00,3.256357785848960629e-01,1.222992107593733058e-01,-5.123062365238958416e-01,5.572057054229705153e-02,-1.456128758596512140e-01,3.336200000000000188e+01,8.000000000000000000e+00
-1.069382403305919382e+00,1.874121308527588736e-01,8.097299916692723976e-02,4.648293332347842588e-01,-1.578823812480713018e-01,-1.271893245133561001e-01,3.341299999999999670e+01,8.000000000000000000e+00
-1.166710105020771104e+00,-8.275955901904493567e-03,5.261961336793411631e-02,4.411869350301767523e-01,-1.082433770748386370e-01,-5.933713295293283618e-01,3.346200000000000330e+01,8.000000000000000000e+00
-9.216338601882185788e-01,1.919627736568977616e-01,2.017724150545368439e-02,8.281854840913884797e-01,-7.854462737771861214e-02,-4.652195530066294826e-01,3.351299999999999812e+01,8.000000000000000000e+00
-8.881098157889087963e-01,-2.269061340171708019e-01,-1.628078945364753172e-01,-8.529903407276353544e-01,-2.616034913384495536e-02,-9.372822744068894929e-01,3.356300000000000239e+01,8.000000000000000000e+00
-1.026349502898123989e+00,1.453817676249316571e-01,7.036372542664934282e-02,-4.937413527143671987e-01,9.696090117153489951e-02,-7.825604629866805828e-01,3.361200000000000188e+01,8.000000000000000000e+00
-9.611203917815807074e-01,-1.144312985802676125e-01,2.199155273900895990e-01,-2.408287850122968199e-01,1.360312847371016043e-01,-6.762181632069698134e-01,3.366299999999999670e+01,8.000000000000000000e+00
-1.006981986351240810e+00,-8.649877182389727193e-02,3.432403399050723003e-01,-3.549945433934678651e-01,-2.074463941494514643e-02,-6.087489513520122353e-01,3.371200000000000330e+01,8.000000000000000000e+00
-9.443226141718475963e-01,-2.039100721907174396e-01,5.678863365457662710e-02,-3.166510029510894997e-01,1.671859934875347120e-02,-6.008281711225882393e-01,3.376299999999999812e+01,8.000000000000000000e+00
-9.752602931556783039e-01,-1.208966096870495444e-01,-1.655671952833286803e-02,-4.034683110964717295e-03,9.223416333358627761e-02,-4.997336877607092553e-01,3.381300000000000239e+01,8.000000000000000000e+00
-9.781950820043452399e-01,-1.287007808314657997e-01,9.922024252159948599e-02,-2.994333551844026720e-01,1.192962745311661188e-01,-5.092700700870045338e-01,3.386200000000000188e+01,8.000000000000000000e+00
-9.724997308831907494e-01,-1.007505467638386276e-01,1.687977068870775144e-01,-3.126244876870842293e-01,1.476759568831773894e-01,-4.808056959301101330e-01,3.391299999999999670e+01,8.000000000000000000e+00
-9.818369299651255044e-01,-1.170783806285849715e-01,1.426519333040985882e-01,-2.074983885030906028e-01,1.380599573367095600e-01,-5.104138664574240369e-01,3.396200000000000330e+01,8.000000000000000000e+00
-9.967343809399714649e-01,-7.939795169588392820e-02,3.763276476085892358e-02,-2.546209511211565690e-01,1.131420201092864508e-01,-3.799846307076317209e-01,3.401299999999999812e+01,8.000000000000000000e+00
-9.817500577971746134e-01,-1.408880927686610440e-01,7.021901486073382770e-02,-5.837971612959338419e-01,9.992716401807659465e-02,-3.415123544016519519e-01,3.406300000000000239e+01,8.000000000000000000e+00
-1.000839923414360122e+00,-1.774029253155460228e-01,1.998563788027420685e-01,-5.310543022727441942e-01,1.204933692889665897e-01,-2.968595482126646923e-01,3.411200000000000188e+01,8.000000000000000000e+00
-1.104366360240195633e+00,-1.250655006370254285e-01,2.358230038200196110e-01,-1.460805983470487845e-01,1.459460296485776687e-01,-2.380045410511809900e-01,3.416299999999999670e+01,8.000000000000000000e+00
-1.160342023279235857e+00,-6.620782827471674570e-02,1.639626380256055671e-01,1.493247127653145045e-01,7.334371861240614188e-02,9.028893006788929476e-02,3.421200000000000330e+01,8.000000000000000000e+00
-1.098985421351976965e+00,5.225638784413241117e-02,8.925934578668674735e-02,3.893734174977718787e-01,-1.548227403635247211e-02,5.181944905094255649e-01,3.426299999999999812e+01,8.000000000000000000e+00
-1.073108086196604249e+00,1.091350179167775575e-01,2.082653636765419841e-02,2.854846235162490364e-01,-6.667956234136294957e-02,1.271654279220521877e+00,3.431300000000000239e+01,8.000000000000000000e+00
-1.038221342893976828e+00,-2.933621281882670129e-02,-1.223885401527663869e-01,2.633152077254095197e-02,2.579460760867696711e-01,2.100551637995359044e+00,3.436200000000000188e+01,8.000000000000000000e+00
-1.144954840380725480e+00,-1.944551798398968523e-01,1.163132362123564523e-02,-1.279734225684946158e-01,7.870876026974902087e-03,1.774350303086784875e+00,3.441299999999999670e+01,8.000000000000000000e+00
-1.090293733273303367e+00,-1.823734109723200436e-01,9.049411647092013566e-02,6.261271544155639912e-01,-2.753188944895684775e-02,1.562391970071710157e+00,3.446200000000000330e+01,8.000000000000000000e+00
-9.327458711018186133e-01,-2.233903076655365666e-02,-8.345515255821103762e-02,6.831152212978230942e-01,3.000537104876035976e-02,1.195750510417562307e+00,3.451299999999999812e+01,8.000000000000000000e+00
-8.827365794712079827e-01,4.129996252382075669e-03,-6.431530850770703078e-02,4.179825858738672184e-01,-5.905221310393293788e-02,9.399243495857108055e-01,3.456300000000000239e+01,8.000000000000000000e+00
-8.509572403326106649e-01,7.372139207429355412e-02,-2.259462701467152002e-02,1.890520416040836760e-01,-3.621307475225129385e-02,5.840698796619753219e-01,3.461200000000000188e+01,8.000000000000000000e+00
-8.371599893553357541e-01,8.585414658412217348e-02,1.301356849114232786e-02,-8.330701486674126077e-02,-1.261851081700941513e-01,1.789774396421133784e-01,3.466299999999999670e+01,8.000000000000000000e+00
-8.489799019756100185e-01,1.511224125995986323e-01,1.082641208816146521e-03,-1.283912099592895428e-01,-5.742185713092623489e-02,-1.729438979414909816e-01,3.471200000000000330e+01,8.000000000000000000e+00
-9.367421385212046925e-01,3.817370864398327290e-01,6.338056424849990156e-02,-1.412048403764108728e-01,-4.728217301700594899e-02,-2.600663523946115108e-01,3.476299999999999812e+01,8.000000000000000000e+00
-1.007481465618048411e+00,4.646113140522765694e-01,9.687643923994146422e-02,1.422127267609603896e-01,-1.627723877976634727e-03,-2.903055568440185974e-01,3.481300000000000239e+01,8.000000000000000000e+00
-1.006939238481648236e+00,4.960882974240294341e-01,5.276871546116222722e-02,-1.788954495700557645e-01,-6.155063478864766097e-02,-3.545862610736109088e-01,3.486200000000000188e+01,8.000000000000000000e+00
-9.328965928159183019e-01,2.902966307043286509e-01,1.343337030001512909e-02,-8.761610240878077438e-02,-2.175015563758007919e-01,-1.099026249645748132e-01,3.491299999999999670e+01,8.000000000000000000e+00
-1.235942202011895974e+00,1.129111309910521832e-01,3.381491981834334332e-02,-5.089554640812532504e-02,-6.151770615277477733e-02,-4.618796835450608707e-01,3.496200000000000330e+01,8.000000000000000000e+00
-9.858602785105692323e-01,1.994515617553254683e-01,2.590838112461988363e-01,1.147445726364872076e+00,-2.582156710505952302e-01,-1.917160054513769585e-01,3.501299999999999812e+01,8.000000000000000000e+00
-8.310717367015196810e-01,-1.996067058991080889e-01,-1.065554562823529255e-01,4.209150988115427372e-02,-2.617492083082833543e-01,-6.564162869220800944e-01,3.506300000000000239e+01,8.000000000000000000e+00
-1.040538392151423519e+00,2.997212003104633357e-02,-8.138228726040656891e-02,-5.599590536244505312e-01,2.369801958882847975e-02,-7.316034440888591339e-01,3.511200000000000188e+01,8.000000000000000000e+00
-9.534541867881374255e-01,-7.664654713938920394e-02,2.218444835314127561e-01,-5.281315889264872609e-01,1.730125112068415794e-01,-7.763392151341929059e-01,3.516299999999999670e+01,8.000000000000000000e+00
-9.686928946215370706e-01,-2.045670211056204585e-02,3.320608637235517580e-01,-1.364845722185031029e-01,1.046468832606401167e-01,-7.441839693349436846e-01,3.521200000000000330e+01,8.000000000000000000e+00
-9.585220998028451955e-01,7.894750572758429952e-03,1.753347586142043057e-01,-1.211899799744291933e-01,1.183873388430140283e-01,-8.262191227510047309e-01,3.526299999999999812e+01,8.000000000000000000e+00
-1.013361478334142918e+00,-2.274098434993806692e-02,1.275287534727682637e-01,-3.009992418414443316e-01,1.078704749263691698e-01,-6.610618142385369378e-01,3.531300000000000239e+01,8.000000000000000000e+00
-9.595810316524790995e-01,-6.038933830868700031e-02,1.969651888615135960e-01,-5.763515290688077386e-02,-9.198690089663608821e-03,-4.975957809571981416e-01,3.536200000000000188e+01,8.000000000000000000e+00
-1.000026666740060799e+00,-1.036498192311883504e-01,1.349716573911389494e-01,-1.244534732858358084e-01,8.303638044925633344e-02,-3.765579740268523157e-01,3.541299999999999670e+01,8.000000000000000000e+00
-9.399865953834846133e-01,-9.676556055377619203e-02,3.391282793862736289e-02,-2.185325848815573568e-01,1.259769779240168253e-01,-5.710721607661458643e-01,3.546200000000000330e+01,8.000000000000000000e+00
-9.681441609285933447e-01,-1.050811218427804283e-01,1.371281285272946959e-01,-6.215431179445338739e-01,2.565539077679067637e-01,-5.500410095124032006e-01,3.551299999999999812e+01,8.000000000000000000e+00
-9.862331468189365902e-01,-1.790735123483370717e-01,1.376288246764555134e-01,-6.509269328144302591e-01,2.824791440022527134e-01,-4.455619125875502351e-01,3.556300000000000239e+01,8.000000000000000000e+00
-1.002694139503173432e+00,-1.552055933522251407e-01,1.392671009778736202e-01,-4.350614822018312178e-01,1.906022010109248710e-01,-4.015120031362375275e-01,3.561200000000000188e+01,8.000000000000000000e+00
-1.013134313820999832e+00,-1.390480379843718750e-01,1.355475979263339736e-01,-5.201967743595694582e-01,1.934442679120708386e-01,-3.496147757803347855e-01,3.566299999999999670e+01,8.000000000000000000e+00
-1.096478973882196728e+00,-1.393170902189316274e-01,2.078633348213282106e-01,-4.010274060952750963e-01,1.849794341181417445e-01,-3.058847484835423569e-01,3.571200000000000330e+01,8.000000000000000000e+00
-1.127193003795546655e+00,-8.892520874405486497e-02,2.058689621237130840e-01,-5.779153263934562468e-02,1.423246961834044311e-01,-6.025279177188898327e-02,3.576299999999999812e+01,8.000000000000000000e+00
-1.097357921654875446e+00,3.477492063514629750e-02,1.509733696961582106e-01,3.445643463058526978e-01,-8.047107447095327298e-03,4.456981118175198375e-01,3.581300000000000239e+01,8.000000000000000000e+00
-1.033137801730883432e+00,6.055318642960218212e-02,-4.955553578321651546e-03,2.106355999262766454e-01,-1.436708881427570597e-02,1.120996194699210413e+00,3.586200000000000188e+01,8.000000000000000000e+00
-1.036628300946292436e+00,3.222782532332942040e-02,-8.043277749428892620e-02,1.775791411777058182e-01,1.805734213105900376e-01,1.844778962760153407e+00,3.591299999999999670e+01,8.000000000000000000e+00
-1.160609067474374090e+00,-1.332910230228917803e-01,4.492397140940762590e-02,6.869407987202726107e-02,-6.365929821730639815e-02,1.925185755644218899e+00,3.596200000000000330e+01,8.000000000000000000e+00
-1.133892564674923165e+00,-2.001432056284057626e-01,1.168868314018111781e-01,5.768783340314889152e-01,-1.940542558394838246e-01,1.808655351512466369e+00,3.601299999999999812e+01,8.000000000000000000e+00
-1.028171268441092412e+00,-4.019187900988070716e-02,-6.222919351749418848e-02,9.562674214496015290e-01,-2.188830248497906639e-01,1.474525202735108120e+00,3.606300000000000239e+01,8.000000000000000000e+00
-9.382695420777842354e-01,2.984033525378139776e-02,-2.759355264299003310e-02,6.114283635289852192e-01,-1.333220428308720396e-01,1.247819036686759198e+00,3.611200000000000188e+01,8.000000000000000000e+00
-8.959115407654577590e-01,1.822715396189305420e-02,1.505646145140110935e-02,5.800344513258318679e-01,-1.451869497308466428e-01,9.053370234786941584e-01,3.616299999999999670e+01,8.000000000000000000e+00
-8.102577885815929193e-01,4.612637213361238386e-02,-4.958315178517735955e-02,3.153277890088538871e-01,-9.659495813909024786e-02,4.634184313251301646e-01,3.621200000000000330e+01,8.000000000000000000e+00
-7.352921755949615168e-01,9.235506106087691680e-02,-5.699276609007264405e-02,-8.818002740295483033e-02,-2.529539569084533410e-02,-1.225697036886753272e-01,3.626299999999999812e+01,8.000000000000000000e+00
-8.281885390508187950e-01,2.375689210334729073e-01,4.259977684362303146e-02,-2.694296398216646793e-01,8.528226447955082612e-02,-6.213414310393960971e-01,3.631300000000000239e+01,8.000000000000000000e+00
-1.027031933939212882e+00,4.383020026090350685e-01,7.914432283661410050e-02,5.627525162150344429e-02,6.818062166544210101e-02,-5.610462642005418221e-01,3.636200000000000188e+01,8.000000000000000000e+00
-1.109009675780294302e+00,5.141143650544173216e-01,1.022703107501387043e-01,-1.742746552197781823e-02,1.322123655578952839e-01,-3.688794058086582450e-01,3.641299999999999670e+01,8.000000000000000000e+00
-9.090330366972713128e-01,3.036685758167333993e-01,1.372957761666568355e-01,3.345965663686872871e-01,-1.036371213813245956e-01,-2.113399834070219252e-01,3.646200000000000330e+01,8.000000000000000000e+00
-1.104889677122943059e+00,6.806375618600178645e-02,6.587450956186452836e-03,-9.193439719826301815e-02,-1.320648895497120168e-01,-7.810516571776477956e-01,3.651299999999999812e+01,8.000000000000000000e+00
-1.131993508495643175e+00,1.423517827784168965e-01,-4.188227087822710831e-02,1.185834440409598151e-01,-4.832591638324199718e-02,-6.484881404366054092e-01,3.656300000000000239e+01,8.000000000000000000e+00
-9.712991530008696639e-01,2.985308631005165747e-01,-8.967947797367861740e-02,2.378716426763999581e-01,5.629043344221283798e-05,-1.309297426644914497e-01,3.661200000000000188e+01,8.000000000000000000e+00
-9.275662878967632086e-01,-2.160072361097691296e-01,1.395159550503262957e-01,-1.000881460914648580e+00,1.185316358232396325e-02,-6.653372953287485236e-01,3.666299999999999670e+01,8.000000000000000000e+00
-9.571529387531569899e-01,-2.904272498125266486e-02,2.216168693062776085e-01,-5.396631192382567166e-02,6.786528054455409631e-02,-5.801187395733872210e-01,3.671200000000000330e+01,8.000000000000000000e+00
-9.375809387111505577e-01,-1.226389930845844523e-01,1.302230474939700122e-01,1.937071645999098313e-01,1.790785456555616106e-01,-7.283915893949389764e-01,3.676299999999999812e+01,8.000000000000000000e+00
-9.974527195459372830e-01,-2.271258636396625459e-03,1.272106799115889919e-01,-5.913655820501815402e-02,1.487420503458694240e-02,-7.912639151609800470e-01,3.681300000000000239e+01,8.000000000000000000e+00
-1.013816212965022334e+00,-1.345065127026293106e-02,1.139317866673676127e-01,-3.093782392145989490e-01,1.892439363822081416e-02,-6.387427495390902710e-01,3.686200000000000188e+01,8.000000000000000000e+00
-9.928320534732545388e-01,-6.650001718046058552e-02,1.353257984647568413e-01,-2.677319600595130522e-01,1.239617702597977517e-02,-3.984397105357144753e-01,3.691299999999999670e+01,8.000000000000000000e+00
-9.681092807730052874e-01,-1.094256344703273542e-01,1.416924306061781436e-01,-2.959980278760642181e-01,3.435994859489096415e-02,-3.512765368595304194e-01,3.696200000000000330e+01,8.000000000000000000e+00
-9.662686555838012614e-01,-1.193873175363305561e-01,1.196917113358484108e-01,-2.164735653269179438e-01,6.016834649518935929e-02,-3.828360258702058205e-01,3.701299999999999812e+01,8.000000000000000000e+00
-9.628405519391785017e-01,-1.457307493149358479e-01,1.080175739856781697e-01,-2.518018756129568603e-01,8.153794496600046127e-02,-4.210290334683130520e-01,3.706300000000000239e+01,8.000000000000000000e+00
-9.627510317569690779e-01,-1.342010001269631769e-01,1.250837352989852824e-01,-1.852384850737076039e-01,1.053300935447548242e-01,-4.644922198994763107e-01,3.711200000000000188e+01,8.000000000000000000e+00
-9.947088267305002063e-01,-1.345218336333205422e-01,1.301120574010215247e-01,-3.064880459044901362e-01,1.530353665172979882e-01,-4.245615834899523766e-01,3.716299999999999670e+01,8.000000000000000000e+00
-9.935050539958598659e-01,-1.546489961810778024e-01,1.261785363029768181e-01,-4.228564464859326799e-01,1.453956411504287172e-01,-4.029424338199465438e-01,3.721200000000000330e+01,8.000000000000000000e+00
-1.024759320368080928e+00,-1.452387188072186697e-01,1.102046799214302653e-01,-4.768107015946174698e-01,1.710429042733703220e-01,-3.300877932867024578e-01,3.726299999999999812e+01,8.000000000000000000e+00
-1.093257370828850661e+00,-1.367689711207429326e-01,1.925269946801558274e-01,-3.401380630673730421e-01,1.628309943357172662e-01,-2.130225028818061583e-01,3.731300000000000239e+01,8.000000000000000000e+00
-1.102436752269290388e+00,-6.605863581122185801e-02,1.653336159478797918e-01,-9.990014765917934469e-02,1.017704499839206245e-01,8.812168016152170658e-02,3.736200000000000188e+01,8.000000000000000000e+00
-1.032969971140147880e+00,1.117714979541574449e-01,1.346999495888148712e-01,2.203078815474000529e-01,-6.801112437230669161e-02,5.928002171792041697e-01,3.741299999999999670e+01,8.000000000000000000e+00
-1.090611590036921985e+00,1.672810745431472790e-01,5.548984483006656060e-02,3.591338418959492129e-01,-3.518896925791980407e-02,1.433988439866272113e+00,3.746200000000000330e+01,8.000000000000000000e+00
-1.116730723757082711e+00,-2.929579999500470100e-02,3.359140827280108176e-03,-6.667621171937765379e-02,-4.360500169733200898e-02,1.969790126856597379e+00,3.751299999999999812e+01,8.000000000000000000e+00
-1.198451183297368328e+00,-1.944945765067176702e-01,1.761150848110926703e-01,2.017149205483807217e-01,-3.242561454064084581e-01,1.759756333120862548e+00,3.756300000000000239e+01,8.000000000000000000e+00
-1.044272588182831862e+00,-1.546488997238697760e-01,7.417473927764602071e-02,1.259369282654761779e+00,-2.502461839943781463e-01,1.666025037129744701e+00,3.761200000000000188e+01,8.000000000000000000e+00
-9.716462280232883719e-01,4.990373071580902348e-02,-1.407925961944717086e-01,9.255007182865494508e-01,-9.134594634291928750e-02,1.367879087516873593e+00,3.766299999999999670e+01,8.000000000000000000e+00
-8.891202647671588855e-01,1.008084059216160511e-02,-4.798998871568665309e-02,4.062582348954289491e-01,3.973223426726302243e-02,1.063970895826465313e+00,3.771200000000000330e+01,8.000000000000000000e+00
-8.806169534626746564e-01,2.060474204485333860e-02,7.072015004261041245e-03,4.229346683991515587e-01,1.115741124007744445e-01,7.084666717359803245e-01,3.776299999999999812e+01,8.000000000000000000e+00
-8.487821538121209652e-01,7.212347213898498421e-02,-3.782835673131459964e-02,-8.053034250106694270e-02,1.051870181739666954e-01,3.126239062007378222e-01,3.781300000000000239e+01,8.000000000000000000e+00
-8.109588805559562186e-01,1.689723928867568614e-01,1.806865823451348982e-02,-1.719507116493717569e-01,1.269347254590680596e-01,-2.002176989930461448e-01,3.786200000000000188e+01,8.000000000000000000e+00
-8.568844461207385521e-01,3.102706246761224307e-01,1.277313571884985677e-01,-7.248736262297521271e-02,4.289547669689055404e-02,-4.983036553089454368e-01,3.791299999999999670e+01,8.000000000000000000e+00
-9.840113219922141941e-01,2.995804868607369054e-01,9.296050398249090796e-02,1.684182933539517257e-01,3.080921634152511239e-03,-6.994129422534254292e-01,3.796200000000000330e+01,8.000000000000000000e+00
-1.099352479702154550e+00,5.170803835660187087e-01,6.054312641456020827e-02,-8.553886845547287177e-02,1.054402386863237950e-01,-4.920275694536930255e-01,3.801299999999999812e+01,8.000000000000000000e+00
-9.581568374212448003e-01,3.888074649577114017e-01,6.002285763234395388e-02,3.666986547765474502e-01,-6.015048494941432899e-02,-2.643254443654843300e-01,3.806300000000000239e+01,8.000000000000000000e+00
-1.123340913175214340e+00,1.487923815804066408e-01,-3.899655583090226585e-02,-1.583739940332120066e-01,-7.357738855310862192e-02,-5.533372661789558444e-01,3.811200000000000188e+01,8.000000000000000000e+00
-1.020305530521306014e+00,1.184292339668526761e-01,4.375772712994853431e-02,-2.960547418481002668e-01,-1.786398756860526835e-02,-5.695239410705188465e-01,3.816299999999999670e+01,8.000000000000000000e+00
-9.500076847803702318e-01,2.709166615057481131e-01,1.051354566390748924e-01,5.741162086144100396e-01,-9.660236466942555278e-02,-2.115625215622597699e-01,3.821200000000000330e+01,8.000000000000000000e+00
-9.721260920701547681e-01,-1.507040061078029347e-01,2.866785162826916353e-02,-9.115020449139924485e-01,-1.182396516004180498e-01,-7.597675921130209176e-01,3.826299999999999812e+01,8.000000000000000000e+00
-9.452189197258153985e-01,5.569134797534798509e-02,1.025803789376409092e-01,-3.205478244468039639e-01,-2.050096907286070441e-02,-4.181744253888911578e-01,3.831300000000000239e+01,8.000000000000000000e+00
-9.624611178839250769e-01,-9.623533930882412213e-02,2.376694334906981343e-01,-1.368752471663090275e-01,7.175011276770379420e-02,-4.492741378835994337e-01,3.836200000000000188e+01,8.000000000000000000e+00
-9.765589509187121431e-01,-2.782247801791717240e-02,1.995039314878077064e-01,-4.997394102731965160e-01,-7.966878089296490495e-02,-6.266320494809332065e-01,3.841299999999999670e+01,8.000000000000000000e+00
-9.470418042377483081e-01,-1.662548199728630938e-01,7.067149400601908937e-02,-3.279008028647714124e-01,9.046122324502922640e-02,-6.882740495148237381e-01,3.846200000000000330e+01,8.000000000000000000e+00
-9.997041241280346657e-01,-1.016232857526531141e-01,1.516181024993429605e-01,5.282946262075238764e-02,1.063139392991743204e-01,-5.407646231622188493e-01,3.851299999999999812e+01,8.000000000000000000e+00
-9.764699929406095436e-01,-1.053544991302985956e-01,1.421553404542387211e-01,-2.412000824477246452e-01,1.136518072804101748e-01,-4.956868083526842494e-01,3.856300000000000239e+01,8.000000000000000000e+00
-9.971531312506037859e-01,-8.194706843897217596e-02,1.066763922350257021e-01,-2.864850681816200617e-01,1.210147000502065778e-01,-4.735456072580194187e-01,3.861200000000000188e+01,8.000000000000000000e+00
-9.700107864266211966e-01,-1.239154906878050522e-01,1.355878024023950967e-01,-4.088669145899540003e-01,1.157743279090956978e-01,-4.621447715848953086e-01,3.866299999999999670e+01,8.000000000000000000e+00
-9.920526227870520852e-01,-1.196135044068621367e-01,1.656758673401139970e-01,-2.532410197747370639e-01,1.260875992174939064e-01,-4.124752502926278264e-01,3.871200000000000330e+01,8.000000000000000000e+00
-1.026587206264642393e+00,-1.110891196103373640e-01,1.213497976216870444e-01,-3.093957521791806942e-01,1.545271353690627625e-01,-3.328890912952812697e-01,3.876299999999999812e+01,8.000000000000000000e+00
-1.038579813719950451e+00,-9.892743845314674878e-02,9.290480617118382356e-02,-4.107559143193433293e-01,1.843019258219927847e-01,-2.812278797983855938e-01,3.881300000000000239e+01,8.000000000000000000e+00
-1.006453215126449141e+00,-1.053221003340618633e-01,1.819179146864776941e-01,-4.342325785871320454e-01,2.427139530625082586e-01,-2.567930974141677258e-01,3.886200000000000188e+01,8.000000000000000000e+00
-1.085546045408210425e+00,-1.601995288732728784e-01,2.568932556136182543e-01,-9.569526896891662748e-02,2.135164852444686456e-01,-1.342371947741419491e-01,3.891299999999999670e+01,8.000000000000000000e+00
-1.026021642705138071e+00,-1.496783960322763465e-02,1.500234886241965382e-01,4.172988133258412335e-01,6.309943210723664708e-02,1.340097659317363021e-01,3.896200000000000330e+01,8.000000000000000000e+00
-1.032281361873054415e+00,1.152487326829838149e-01,5.905687809867354865e-02,4.839895824487164266e-01,-6.305316261790082366e-02,6.765545225924118888e-01,3.901299999999999812e+01,8.000000000000000000e+00
-1.078594750447313899e+00,1.245028880743566935e-01,-1.183280074994765563e-01,1.488271380598840399e-01,1.682598606211222481e-01,1.510787953268054595e+00,3.906300000000000239e+01,8.000000000000000000e+00
-1.167325633564890941e+00,-7.112811449716140155e-02,4.236884915600540487e-03,-3.417004633170289130e-01,5.431447663913065854e-02,1.801392145080565665e+00,3.911200000000000188e+01,8.000000000000000000e+00
-1.135969442764616089e+00,-1.872211911561522668e-01,1.367527972372001299e-01,5.102661413053334594e-02,-1.327418259721923344e-01,1.761946256543970524e+00,3.916299999999999670e+01,8.000000000000000000e+00
-1.058634895924343233e+00,-5.216629469724429896e-02,6.644643392749657873e-02,9.312825378669085108e-01,-2.131487576850996657e-01,1.461709184541606588e+00,3.921200000000000330e+01,8.000000000000000000e+00
-9.201842336151496715e-01,2.441858013971247993e-02,-5.980211106919122027e-02,8.183958974424019317e-01,-3.883028435631746822e-02,1.268171395195061946e+00,3.926299999999999812e+01,8.000000000000000000e+00
-9.719023931999991595e-01,4.223929960281171819e-02,-6.724660670465031076e-03,6.266916114096109380e-01,-4.660250405074314178e-02,1.086623883149437031e+00,3.931300000000000239e+01,8.000000000000000000e+00
-8.924758652805498960e-01,8.601890886601691599e-02,1.249891301539355314e-02,3.233202469970777870e-01,-8.298852778325740975e-02,8.099189486493967305e-01,3.936200000000000188e+01,8.000000000000000000e+00
-8.423231046707766456e-01,1.047375916687255659e-01,4.611768314628825302e-04,1.010847783055494747e-01,-4.616760374336785488e-02,3.073113062778056181e-01,3.941299999999999670e+01,8.000000000000000000e+00
-7.986638578660334442e-01,1.493658739576226580e-01,-1.775164054725009155e-02,-1.881881294462525722e-02,8.502849252130191549e-02,-1.928831665334612977e-01,3.946200000000000330e+01,8.000000000000000000e+00
-8.377904987186626240e-01,1.953334389311064401e-01,7.320728838676848760e-02,2.412722330482380551e-01,1.360039855241675956e-02,-6.047593576660680315e-01,3.951299999999999812e+01,8.000000000000000000e+00
-9.963700315941844687e-01,3.583512691173927900e-01,8.960635781202334893e-02,2.443997497778726269e-01,-6.859356023890406107e-02,-8.013474408756019463e-01,3.956300000000000239e+01,8.000000000000000000e+00
-1.038076006086731784e+00,5.752930442681704060e-01,8.528968770981389114e-02,-5.771152420430066682e-02,2.778865485062514962e-02,-4.071140862396890325e-01,3.961200000000000188e+01,8.000000000000000000e+00
-1.006436790946851456e+00,2.403876477646232357e-01,-5.764297364734251999e-02,-1.076034037111230496e-01,-7.861089342183785744e-02,-2.249200111615022243e-02,3.966299999999999670e+01,8.000000000000000000e+00
-1.184444502844512304e+00,8.726975314331769651e-02,3.147295869491777143e-02,-2.195371881992874141e-01,-1.311996820648752560e-01,-5.114129342890511021e-01,3.971200000000000330e+01,8.000000000000000000e+00
-1.060571903014754014e+00,3.000368537601091345e-01,3.528835970443725684e-02,4.557576486161091234e-01,-1.424448688132455842e-01,-5.712131225011171098e-01,3.976299999999999812e+01,8.000000000000000000e+00
-8.429666890439110327e-01,-1.958556238215024836e-01,3.337578112628672346e-03,-6.873008072430348836e-01,-7.613124565809628597e-02,-8.635834825316559549e-01,3.981300000000000239e+01,8.000000000000000000e+00
-9.887462254076135881e-01,5.907577558503869508e-02,9.848210795310713417e-02,-4.799482182798303631e-01,-5.244249011787895792e-02,-7.811931583138507218e-01,3.986200000000000188e+01,8.000000000000000000e+00
-9.815103738262417332e-01,9.232123347137771718e-03,2.795203487612679671e-01,-2.502909475965831021e-01,2.399327384366246874e-01,-6.629440432410993456e-01,3.991299999999999670e+01,8.000000000000000000e+00
-9.755052700009827493e-01,2.478368266600662010e-03,1.905680774425571877e-01,-1.875227550010261923e-01,5.954655723063567718e-02,-6.916135571361392564e-01,3.996200000000000330e+01,8.000000000000000000e+00
-9.941012265714286311e-01,5.789207641675776089e-03,1.488339369511557653e-01,-2.078215931351818924e-01,6.185298895145143611e-02,-5.308034472048597241e-01,4.001299999999999812e+01,8.000000000000000000e+00
-9.837807497069658291e-01,-3.618182217108550924e-02,1.788977538116998112e-01,-2.885172198854767389e-01,3.986744350714910290e-02,-4.370368103127292292e-01,4.006300000000000239e+01,8.000000000000000000e+00
-9.846662717796534903e-01,-4.839858896788711007e-02,2.154318180484831591e-01,8.308548799977468619e-03,2.326929189955973670e-02,-3.524066406348003722e-01,4.011200000000000188e+01,8.000000000000000000e+00
-9.628573323918331317e-01,-6.208108038501090192e-02,1.167678898740812377e-01,-3.846209302146228609e-02,6.645221992483671403e-02,-3.440175658023603700e-01,4.016299999999999670e+01,8.000000000000000000e+00
-9.628616768862581221e-01,-7.442488852517895048e-02,1.044286045005907299e-01,-1.675294506561638141e-01,5.016373735824648794e-02,-3.896428457660093825e-01,4.021200000000000330e+01,8.000000000000000000e+00
-9.508345129053958900e-01,-1.043457911432750518e-01,1.556100747209339108e-01,-2.492033382264747243e-01,1.417902712210449001e-01,-4.462540369831572429e-01,4.026299999999999812e+01,8.000000000000000000e+00
-9.717653600877170783e-01,-1.280523305360311004e-01,1.656972218342299130e-01,-1.967292981794560025e-01,2.105260522469330764e-01,-3.878914536381454781e-01,4.031300000000000239e+01,8.000000000000000000e+00
-9.583188462243379391e-01,-1.194775403220288135e-01,1.411098700828483932e-01,-4.041278240922767107e-01,2.339041224898005533e-01,-4.525967603291248809e-01,4.036200000000000188e+01,8.000000000000000000e+00
-9.826527726515517092e-01,-1.268517398157172626e-01,1.425904091160800635e-01,-5.200954875559486990e-01,2.338420072667904692e-01,-3.421840311900378739e-01,4.041299999999999670e+01,8.000000000000000000e+00
-1.008171099418009309e+00,-1.148155024692968373e-01,1.470283906125873785e-01,-4.491513319550102246e-01,1.575001067377773956e-01,-2.461816297427981970e-01,4.046200000000000330e+01,8.000000000000000000e+00
-1.221793194403913985e+00,-1.136281022683010705e-01,1.696193924577401868e-01,-2.558671117439650367e-01,9.471576103571779925e-02,5.775381797059589775e-03,4.051299999999999812e+01,8.000000000000000000e+00
-1.240781935024137361e+00,1.846577369673265689e-01,1.317712883915230226e-01,2.885085684492139646e-01,-1.104547027811789428e-01,6.518167901809737153e-01,4.056300000000000239e+01,8.000000000000000000e+00
-1.158906492516043940e+00,2.850469334329955307e-01,-3.674779036896859245e-03,4.016622325400437954e-01,8.676121321296220712e-02,1.749619175007229188e+00,4.061200000000000188e+01,8.000000000000000000e+00
-9.923739617513527289e-01,-1.855444624690325700e-02,-1.027279828768521003e-01,-5.270005210218430269e-01,3.473403066507096959e-01,2.182571412866248561e+00,4.066299999999999670e+01,8.000000000000000000e+00
-1.143147817816966505e+00,-3.260778151469528874e-01,1.693841246522731214e-01,4.345908407227169062e-02,-2.226856966044774566e-01,1.758413839205483553e+00,4.071200000000000330e+01,8.000000000000000000e+00
-1.029255852872915211e+00,-1.558680127440352503e-01,1.229108325404422442e-01,1.068006810048261146e+00,-2.247993433651332418e-01,1.531463007466864035e+00,4.076299999999999812e+01,8.000000000000000000e+00
-9.574131693177406754e-01,1.235197748710639420e-01,-7.280901159611578854e-02,8.061317201026921841e-01,-2.774929007161514027e-01,1.256866465322842963e+00,4.081300000000000239e+01,8.000000000000000000e+00
-8.872760093718470298e-01,3.106593278461292768e-02,-2.766986601422409889e-02,6.445505865082619135e-01,-2.679970178597540498e-01,9.237336995343854440e-01,4.086200000000000188e+01,8.000000000000000000e+00
-8.771084366045265313e-01,5.962618818118599340e-02,-1.176483440375484524e-01,3.947062353682958546e-01,-4.553148579714007271e-02,5.450935086777478622e-01,4.091299999999999670e+01,8.000000000000000000e+00
-8.120711573499015401e-01,1.482495453599275426e-01,-4.166388294806528531e-02,1.139776356183883621e-01,1.333331329724087369e-02,1.521524950601839676e-01,4.096200000000000330e+01,8.000000000000000000e+00
-7.813258943615567498e-01,2.475882948140856465e-01,2.519166628956366269e-02,-3.419328506247520383e-01,1.132553333638624260e-01,-4.275355147523688393e-01,4.101299999999999812e+01,8.000000000000000000e+00
-9.428964517797755462e-01,3.981554724720630656e-01,1.054032538701234339e-01,-2.069273907444879601e-02,8.086813559424711750e-02,-8.107303740381294199e-01,4.106300000000000239e+01,8.000000000000000000e+00
-1.033177233170032183e+00,3.828041895330091537e-01,8.994142944385233318e-02,3.467628306746862732e-01,1.703963302504289401e-01,-5.974448117069159903e-01,4.111200000000000188e+01,8.000000000000000000e+00
-9.581043710533581059e-01,4.501870220476512641e-01,1.213354750141252686e-01,4.912583382421855521e-02,6.956153290891906038e-02,-1.699780257972643704e-01,4.116299999999999670e+01,8.000000000000000000e+00
-1.065207152693924630e+00,6.839613844750688787e-02,-2.300211773606929133e-02,-1.205403577659148323e-01,-3.607115568568526609e-02,-5.964096421758054989e-01,4.121200000000000330e+01,8.000000000000000000e+00
-1.124860571105875451e+00,3.538032747774620679e-02,7.617986505367745076e-02,1.081598525023873825e-01,-2.902745406330177122e-02,-5.007725860122306250e-01,4.126299999999999812e+01,8.000000000000000000e+00
-1.076516209141255676e+00,4.108794473713171524e-01,4.491950821698803380e-03,4.710118788667895240e-01,-2.147021154355484573e-01,-2.528663230350775004e-01,4.131300000000000239e+01,8.000000000000000000e+00
-8.502144281493595468e-01,-2.312919524111135272e-01,-5.731768523969025392e-02,-1.260349445263174051e+00,-2.960200541504763930e-02,-6.964692928262564697e-01,4.136200000000000188e+01,8.000000000000000000e+00
-9.909135054048364699e-01,1.216810431964534811e-01,1.917463783232584429e-01,-2.035509646009977247e-01,3.240388641362149102e-02,-4.813121521921203683e-01,4.141299999999999670e+01,8.000000000000000000e+00
