time_ms;left_accel_x;left_accel_y;left_accel_z;left_gyro_x;left_gyro_y;left_gyro_z;right_accel_x;right_accel_y;right_accel_z;right_gyro_x;right_gyro_y;right_gyro_z
11278;-13.28;2.44;-0.24;36.375;-38.813;-27.125;-13.32;-1.67;-0.32;7.437;6.5;3.438
11328;-13.82;4.26;-3.03;1.375;-9.875;-12.438;-13.09;-2.62;0.54;20.187;48.625;-10.188
11379;-7.16;-0.94;3.01;-140.75;-12.813;18.25;-11.52;2.97;-1.68;-46.375;134.875;2.875
11430;-9.48;3.75;1.93;-32.438;-19.25;-7.75;-9.35;-0.62;2.27;18.125;122.75;-3.438
11478;-9.66;0.98;2.18;-49;-23.375;-0.937;-11.3;-3.16;5.85;0.937;82.813;-24.187
11530;-10.19;2.27;1.5;-61.813;-20.187;-5.437;-10.09;-0.98;3.26;-131.875;80.625;-9.625
11579;-9.6;3.53;1.82;-75.063;-3.063;6.187;-9.01;-0.12;2.32;-77.5;40.563;-13.813
11630;-9.12;2.38;2.01;-38.375;2.5;4.625;-7.47;0.76;3.07;-33.813;-8.813;-15.188
11679;-9.54;2.46;2.19;-21.5;-3.313;2.25;-7.5;0.52;3.03;-91.188;-56.438;1.625
11729;-9.54;2.23;0.22;-7.125;-9.25;3.063;-9.35;0.24;-1.04;-154.875;-72.188;22.375
11779;-9.44;1.25;0.33;-31.187;-6;0.5;-10.31;4.05;-3.54;-18.062;-45.813;14.5
11829;-8.91;3.09;2.72;-39;1.562;-3.188;-11.96;-0.92;5.87;87.063;-55.813;-11.063
11879;-9.2;3.05;1.6;-5.937;-7.75;3;-9.25;-1.8;1.14;-4.437;-33.5;18.125
11929;-8.46;0.79;2.77;0.125;-4.875;-10.688;-9.06;1.32;3.36;10;-46.063;4.812
11979;-9.29;2.29;2.49;9.125;-18;-18.5;-9.3;-0.26;1.76;-7.5;-48.25;9
12029;-9.72;1.26;1.55;16.812;-9.688;-14.125;-10.38;-0.12;1.84;39.125;-20.937;8.188
12079;-9.66;1.57;2;2.875;-2.625;-10;-11.4;-0.76;-0.09;-29.5;0.312;-7.062
12129;-9.63;0.9;1.86;5.5;-0.937;-6.437;-8.91;-0.39;1.76;29.625;0.875;-9.625
12179;-9.62;0.93;1.89;-9.5;1.562;-3.938;-9.64;-0.17;2.7;-1.562;-0.875;-0.375
12229;-9.46;1.71;1.94;-10.125;1.75;-0.625;-9.48;-0.58;2.64;-10.063;-1;-0.437
12278;-9.49;1.49;1.73;1;0.437;-1.25;-9.81;0.11;2.12;-7.125;-3.813;0
12329;-9.5;1.6;1.83;2.688;-0.937;-1.812;-9.65;0.56;1.76;-4.437;-0.5;-1.125
12380;-9.43;1.36;1.79;6.625;-0.937;-0.937;-9.71;-0.45;2.01;8.563;1.125;-0.75
12429;-9.5;1.39;1.84;2.813;-1.187;-0.562;-9.68;-0.19;2.05;5.625;0;-0.75
12479;-9.43;1.56;1.81;5.437;-1.937;0;-9.72;-0.17;1.71;-1.25;0.625;0
12529;-9.49;1.58;1.71;5.375;-1.75;0.062;-9.57;0.15;1.75;1.25;1.5;-0.437
12580;-9.54;1.54;1.91;1.75;-0.625;0.437;-9.66;0.1;1.81;4.125;1.5;-0.5
12629;-9.48;1.58;2.03;2.5;-0.75;0.562;-9.59;-0.13;2.08;2.875;1.812;-0.125
12679;-9.44;1.51;2.03;3.375;-1.437;0.687;-9.57;0.06;2.03;-0.687;-0.5;0.375
12729;-9.47;1.63;1.97;1.375;-0.625;0.687;-9.61;0.13;1.75;-1.562;0.812;1.125
12780;-9.41;1.6;1.98;1.062;-0.062;0.562;-9.72;0.07;1.86;-0.375;-1.25;1.062
12829;-9.44;1.71;1.93;-0.562;0.187;0.437;-9.58;0.07;1.68;-2.375;1.187;0.312
12879;-9.39;1.57;1.88;-0.875;0.437;0.812;-9.68;0.01;1.82;-1.625;0.312;0.75
12929;-9.44;1.71;1.88;-3.188;0.75;0.75;-9.67;0.06;1.78;-3.313;0.187;0.437
12980;-9.45;1.56;1.87;-1.562;0.875;1;-9.66;0.13;1.93;-2.75;-0.75;0.937
13029;-9.44;1.74;1.84;-3;0.5;0.25;-9.62;0.13;1.86;-1.812;-0.25;0.437
13079;-9.43;1.69;1.79;0.187;0.312;0;-9.56;0.21;1.93;-0.312;-0.937;0.187
13129;-9.46;1.65;1.85;0.687;-0.437;-0.25;-9.66;0.09;1.83;0.5;-0.875;0.375
13180;-9.48;1.6;1.87;0.375;-0.312;-0.375;-9.59;0.11;1.82;0.937;-0.687;0.062
13229;-9.4;1.51;1.88;0;0.562;-0.062;-9.68;-0.05;1.98;2.438;-0.75;0.187
13279;-9.45;1.64;1.88;0.437;-0.562;-0.375;-9.58;0.06;1.91;0.5;-1.187;0.187
13330;-9.39;1.51;1.86;1.062;-0.562;-0.187;-9.7;0;1.83;-0.187;-1.125;0.625
13380;-9.47;1.71;1.88;-0.062;-0.5;-0.312;-9.65;0;1.86;-0.125;-1;0
13429;-9.43;1.62;1.8;0.125;-0.5;0.125;-9.64;0.11;1.85;0.812;-0.5;0.125
13479;-9.46;1.71;1.91;-0.375;-0.312;0.062;-9.61;0.17;1.89;-0.187;-0.25;-0.375
13530;-9.43;1.59;1.86;0.062;-0.625;-0.312;-9.63;0.08;1.89;1.875;-1.125;-0.125
13579;-9.43;1.71;1.93;0.062;-0.5;-0.562;-9.61;0.16;1.86;0.187;-0.125;-0.5
13629;-9.45;1.49;1.9;0.25;-0.375;-0.312;-9.63;-0.01;2.01;1.875;-0.812;-0.125
13679;-9.46;1.59;1.96;-0.562;0.187;-0.125;-9.62;0;1.9;-0.312;0.062;-0.25
13730;-9.44;1.45;1.93;-0.125;0.375;0.562;-9.63;0.04;1.99;0.187;-0.375;-0.125
13779;-9.43;1.55;1.99;-0.562;0.25;0.5;-9.58;0.14;1.91;-1.312;0.625;0.125
13829;-9.49;1.68;1.83;-0.687;0.062;-0.062;-9.68;0.03;1.99;0;-0.437;-0.062
13879;-9.44;1.6;1.88;0.312;0;0.187;-9.6;0.11;1.89;-0.5;-0.062;0.25
13930;-9.46;1.62;1.88;0.312;0;0.062;-9.64;0.14;1.92;0.375;0.312;-0.25
13979;-9.45;1.65;1.88;0.812;-0.375;0;-9.63;0;1.93;1.062;0;0
14028;-9.45;1.59;1.89;0.75;-0.125;0.187;-9.63;0.11;1.89;0.562;-0.125;-0.187
14079;-9.44;1.59;1.87;0.437;-0.437;0;-9.62;0.02;1.91;0.437;0.062;0.187
14130;-9.43;1.69;1.84;0.687;-0.25;0.312;-9.66;0.03;1.91;-0.5;0.187;-0.062
14179;-9.43;1.6;1.85;1.25;-0.375;-0.125;-9.61;0.19;1.93;-0.562;0.812;-0.125
14229;-9.44;1.7;1.9;1.812;-0.437;0.062;-9.55;0.13;1.99;3.313;0.25;-0.5
14279;-9.46;1.58;1.92;3.438;-1;-0.187;-9.71;-0.01;1.78;1.937;-0.312;0.187
14330;-9.43;1.57;1.95;1;-0.625;0;-9.61;0;1.81;1.312;0.187;-0.25
14379;-9.43;1.55;1.96;-0.75;0;0.375;-9.62;0.1;1.85;-0.5;-0.375;0.25
14428;-9.43;1.64;1.95;-3.688;-0.125;0.625;-9.52;0.12;1.99;-1.125;-0.625;0.687
14480;-9.41;1.54;1.99;-2.563;-0.125;0.437;-9.64;-0.04;1.95;-3.688;-1.937;1.062
14530;-9.46;1.64;1.86;-4;0.125;0.75;-9.75;0.01;1.82;-7.312;-2.125;2.375
14579;-9.42;1.73;1.79;-1.937;0.312;1.125;-9.72;0.17;1.77;-2.813;0.812;0.25
14628;-9.38;1.72;1.78;-0.937;-0.25;0.562;-9.51;0.28;2.13;2.75;1.062;-0.125
14680;-9.42;1.77;1.79;2.688;-0.687;-0.062;-9.58;0.07;1.97;2.063;0.875;-0.625
14730;-9.46;1.49;1.92;4.25;-0.25;0.187;-9.63;0.05;1.89;4.687;0.25;0.062
14779;-9.5;1.5;2.08;-0.125;1;1.25;-9.73;0.02;1.86;2.438;1.125;0.187
14829;-9.41;1.58;2.13;-0.875;1.562;1.562;-9.6;0.03;2;1.625;1.562;0.25
14880;-9.38;1.66;1.89;-1.187;1.125;1.562;-9.56;0.17;1.97;-2;0.875;0.875
14930;-9.54;1.71;1.69;-1.625;0.937;1.437;-9.62;-0.02;1.83;-2.063;0.437;1.375
14979;-9.54;1.53;2;-0.375;2.063;2.688;-9.76;-0.19;1.66;-2;-0.062;1.375
15029;-9.39;1.41;2.03;-7.312;3.188;2.813;-9.62;0;1.54;-3.25;1.187;1.5
15080;-9.36;1.92;1.8;-9.375;2.5;3.188;-9.58;0.08;1.91;-8.188;0.437;2.375
15129;-9.43;1.88;1.56;-6.687;1.812;2;-9.69;0.35;1.96;-7.375;0.562;2.063
15179;-9.51;2.15;1.68;-5.125;0.437;2.25;-9.57;0.43;2.01;-0.437;0.875;0.312
15229;-9.41;1.78;1.76;-0.25;1.375;1.312;-9.68;0.04;1.76;1.062;0.312;0.687
15280;-9.41;1.58;1.82;-0.937;-0.125;0.437;-9.63;0;1.61;-0.625;-0.187;0.625
15329;-9.36;1.87;1.66;-3.063;-0.312;0.687;-9.79;-0.02;1.4;-6.062;-0.75;1.375
15379;-9.4;2.15;1.44;-1.375;-0.187;-0.25;-9.48;0.33;1.65;0;1.25;-0.875
15429;-9.45;1.96;1.74;2.063;-0.125;-1.187;-9.8;0.32;1.96;4.062;2.25;-2.25
15479;-9.42;1.84;1.85;5.812;-1.562;-1;-9.47;0.29;2.25;9.313;-1.125;-1.312
15529;-9.4;1.59;2;8;-2.688;-1.875;-9.66;-0.03;1.88;4;-1.375;-1.187
15579;-9.46;1.66;2.02;6.5;-3.75;-2.313;-9.6;0.13;1.73;2.625;-3.25;0.375
15630;-9.47;1.82;1.82;3.75;-2.625;-2.25;-9.72;0.24;1.74;3.25;-1.687;-0.562
15679;-9.48;1.97;1.82;5;-3.375;-2.625;-9.51;0.25;2.01;6.937;-1.625;-1.187
15729;-9.39;1.77;1.83;6.625;-2.313;-2.438;-9.63;0.17;1.82;8.813;-1.562;-0.937
15778;-9.41;1.7;2;5.5;-1.5;-2;-9.57;0.19;1.9;9.125;-1.375;-1.562
15830;-9.41;1.67;1.97;4.062;-1.375;-2.313;-9.74;-0.04;1.71;5.875;-1.5;-2.188
15879;-9.41;1.66;2.02;0.375;-0.437;-1.5;-9.62;0.16;1.94;4.187;-1;-1.687
15928;-9.44;1.62;1.95;-1.312;-0.312;-1.562;-9.78;0.16;1.99;2.75;-1.062;-1.625
15978;-9.42;1.83;1.88;1.625;-0.25;-1.312;-9.51;0.07;1.94;4.25;0.875;-2.25
16030;-9.38;1.38;1.96;4.312;0.187;-1.125;-9.59;-0.05;1.98;2.875;-0.062;-2.125
16079;-9.53;1.34;2.04;-0.375;2.563;0.5;-9.67;-0.31;1.89;0.562;0.125;-0.562
16128;-9.42;1.48;2.05;-3.438;1.875;1.312;-9.63;-0.17;1.8;-3.688;1.312;-0.75
16178;-9.42;1.64;1.76;-2.5;1.687;0.75;-9.51;0.16;1.79;-4.625;0.75;0.125
16230;-9.54;1.67;1.69;-4.937;3.438;2.063;-9.67;-0.12;1.69;-5;0.375;1.187
16279;-9.48;1.59;1.76;-10.813;5.187;3.5;-9.68;-0.09;1.65;-7.625;-1.937;2.563
16328;-9.42;1.69;1.81;-12.813;3.813;3.063;-9.74;-0.06;1.5;-13.813;-1.187;2.25
16377;-9.41;1.8;1.74;-12.313;2.813;2.063;-9.63;0.18;1.93;-10;-0.625;1.687
16430;-9.48;1.83;1.57;-8.875;1.812;1.625;-9.56;0.21;2.2;-6.125;-0.125;0.437
16479;-9.41;1.87;1.68;-2.5;1.125;0.75;-9.54;0.19;2.2;-3.188;-0.187;-0.062
16528;-9.41;1.67;1.87;2.25;0.187;0.125;-9.61;0.36;2.12;0.875;1.5;-1.25
16578;-9.44;1.71;1.82;4;-0.625;-0.437;-9.6;0.13;2.12;2.438;0.937;-1.187
16630;-9.48;1.68;1.81;5.812;-0.937;-0.812;-9.73;-0.13;1.91;1.937;0.875;-1.25
16680;-9.47;1.58;1.8;4.312;0.25;0.437;-9.6;0.19;1.92;4;0.75;-0.312
16728;-9.46;1.66;1.82;1.5;0.625;0.687;-9.67;0.01;1.86;3.625;1.062;-0.25
16779;-9.48;1.7;1.83;3.188;-0.25;0;-9.7;0.08;1.94;4.062;1.062;-0.187
16830;-9.4;1.76;1.76;3.375;-1.312;-0.437;-9.58;0.02;1.82;4.25;0.625;-0.437
16880;-9.49;1.63;1.66;4.25;-1.562;-0.562;-9.69;-0.28;1.62;0.125;0.5;-0.062
16928;-9.52;1.45;1.67;0.625;1;1;-9.59;-0.19;1.53;-0.062;2.125;-0.187
16979;-9.5;1.53;1.87;-5.125;3.625;2.875;-9.76;-0.34;1.57;-4.687;2.188;0.75
17030;-9.48;1.68;1.87;-7.437;3.313;2.875;-9.84;0.08;1.59;-8.188;5.375;-0.5
17080;-9.35;1.91;1.79;-6.437;3.125;2.625;-9.44;0.57;2.26;-2.313;3.938;-0.25
17128;-9.35;2.03;1.65;-1.937;1.875;1.437;-9.37;0.59;2.39;2.063;2.313;-0.625
17180;-9.45;2.15;1.57;7.437;-1.187;-1.375;-9.48;0.28;2.13;8.375;-0.937;0.437
17230;-9.46;1.95;1.46;13.188;-3.938;-3.188;-9.8;0.23;1.76;12;-4.062;0.562
17280;-9.5;1.99;1.56;14.375;-4.062;-3.625;-9.8;0.01;1.22;13.438;-1;-1.375
17328;-9.42;1.55;1.77;10.563;-2.313;-1.875;-9.78;-0.24;1.36;13.313;1.125;-1.812
17380;-9.27;1.51;1.93;1.562;-2.5;-1.125;-9.54;-0.12;1.56;7.937;-2.375;-0.875
17430;-9.13;1.57;1.89;-1.562;-3.688;-0.812;-9.52;-0.21;1.78;-0.812;-3.75;1.5
17479;-9.46;1.77;2.18;-3.063;-5.562;-0.687;-9.85;0.13;2.24;-5.812;-7.875;3.063
17528;-9.24;1.42;2.21;-4.937;-8.375;-1.812;-9.61;0.37;2.04;-2.438;-6.437;2.375
17580;-9.43;1.67;1.76;-4.187;-6.875;-1.687;-9.38;0.22;2.03;-2.625;-2;0.25
17630;-9.41;1.86;2.41;-9.375;-5.937;-2.188;-9.36;0.38;2.36;5.437;-5.5;0.25
17679;-9.31;1.84;2.47;-6.937;-5.187;-2.375;-9.71;0.26;2.12;-0.437;-5.875;-0.187
17728;-9.6;1.75;2.46;-4.75;-1.187;0.437;-9.33;0.27;2.49;-3.563;-6.937;1
17780;-9.6;2.25;1.79;-11.125;9.563;3.563;-9.55;0.48;2.09;-13.625;-9.438;0.25
17830;-9.8;2.39;1.31;2.25;16.812;6.312;-9.33;-0.32;2.29;-44.813;-4.812;-0.562
17879;-10.28;2;1.1;-2.063;30;14.313;-9.02;0.85;2.75;-39.813;-7.187;4.625
17927;-11.04;2.96;0.73;23.937;66.938;13.438;-9.15;0.25;2.98;-23.125;-10.375;8.063
17980;-11.12;0.57;-1.85;41.125;115.688;5.125;-9.69;-0.56;3.14;-53.875;-6.937;8.438
18030;-9.84;2.89;0.58;-7.75;119.688;18.875;-9.76;0.74;2.54;-20.937;-14.5;3.625
18078;-9.26;3.35;0.59;41.75;82.5;12.563;-10.2;0.58;1.02;20.375;-7.687;-6
18128;-8.53;1.63;-0.45;57.5;45.5;3.25;-9.48;-0.88;2.84;34.563;-3.375;-7.375
18180;-7.26;1.18;-0.63;23.937;13.438;6.437;-8.93;-0.61;2.98;16.937;-6.437;-5.687
18230;-7.06;0.16;-0.68;28.25;-13.25;-2.438;-9.41;-0.09;2.11;-2.188;-11.875;2.313
18278;-7.74;0.28;-1.61;-2;-28.437;-8.25;-9.62;0.02;1.66;-0.187;-10.875;1.437
18327;-8.1;0.97;-2.2;-27.125;-42.438;-19.687;-9.43;-0.4;1.77;4.062;-11.063;1.812
18379;-10.36;2.22;-2.64;-20.875;-55.563;-15.875;-9.65;-0.8;2.37;1.437;-16.75;4.25
18430;-12.11;4.38;-5.27;-11.688;-14;1.312;-9.44;-0.91;2.29;0.312;-18.187;5.75
18478;-9.4;1.76;-3.22;-4.5;9.313;11.5;-9.75;-0.48;2.61;7.375;-16.812;6.187
18527;-9.93;0.48;-0.36;-10.563;-14.438;4.687;-10.25;-0.94;2.21;19.937;-11.875;2
18579;-10.16;3.76;-2.81;97.5;-14.938;6.125;-10;-0.5;1.75;25.812;-3.813;2.125
18630;-9.85;2.06;-1.59;3.563;-12.125;20.562;-11.26;-0.32;1.34;17.437;11.688;-1.125
18677;-6.47;-1.76;3.31;20.125;0.125;6.125;-11.73;0.45;-0.61;21.687;37.5;-9.75
18730;-10.27;3.17;1.45;-45.063;-41.125;8.75;-11.79;0.9;-1.5;11.563;85.563;-15.125
18780;-9.02;1.89;2.26;-15.313;-52;-1.75;-10.6;1.35;1.35;32.5;152.75;-1.562
18829;-9.68;1.22;1.19;-26.062;-44;-9.313;-12.24;-1.27;4.48;47.75;131.5;-31
18877;-9.62;3.26;1.27;-81.875;-36.375;0.812;-10.94;-2.1;4.53;-23.937;106.438;-46
18930;-9.92;3.92;0.61;-55.563;-13;3.188;-9.46;0.48;1.83;-126.938;93.188;-22.375
18980;-9.27;2.9;1.03;-20.437;-4.75;9.313;-7.51;1.45;0.9;-77.5;65.625;-22.812
19029;-8.89;2;1.99;-7.562;-6.937;1.875;-8.31;1.83;0.99;-56.438;17.5;-17.187
19077;-9.42;2.59;2.04;1.562;-17.062;-4.687;-8.61;1.78;-0.57;-0.625;10.063;-17.375
19129;-9.39;1.56;1.14;-7;-17.875;-6.687;-8.67;-0.12;-1.88;70.813;1.75;-14.063
19180;-9.56;3.02;1.52;-6.062;-16;-4.125;-9.55;-2.98;-2.77;34.188;-9.313;-1.5
19229;-9.41;2.27;1.95;21.312;-14;-0.687;-8.94;-2.25;-2.3;-6.5;-13.563;5.5
19277;-9.28;0.82;2;11.188;-16.875;0.75;-8.76;-0.86;-1.92;-10.563;-32.313;6.875
19330;-9.47;1.68;2;-16.812;-13.375;-0.375;-9.5;-0.75;-2.35;-12.938;-33.25;7.5
19380;-9.16;1.9;2.28;-13.875;-12.875;0;-9.88;-0.5;-2.11;-17.875;-27.812;7.5
19428;-9.17;1.96;2.24;-16.062;-13.25;-2.938;-10;-0.65;-1.61;-12.063;-21.687;2
19477;-9.11;2.39;2.39;-13.438;-14.063;-2.25;-9.66;0.06;-0.64;-7.25;-24.312;-0.375
19530;-9.5;2.44;2.56;-6.812;-16;-2.375;-10.27;0.35;-0.57;2.563;-34.25;7.5
19580;-9.08;2.09;2.33;-2.375;-14.75;-2.875;-11.05;-0.36;-2.12;-35.25;-22.25;8.188
19628;-9.22;2.27;2.68;-10.813;-14.5;-3.75;-9.74;-0.45;-1.54;-11.375;-14.625;0.125
19677;-9.36;1.9;2.44;-19.437;-12.875;-2.563;-9.52;-0.08;-0.57;6.625;-32.438;5.25
19730;-9.53;2.38;2.07;-25.437;-2.563;0.375;-9.62;-0.5;-0.32;-13.5;-24.5;3.313
19779;-9.43;2.32;2.17;-15.688;11.938;6.062;-9.69;0.04;0.2;-16.562;-25.187;2.688
19828;-9.39;1.97;2.55;-16.5;17.875;8.813;-10.03;-0.39;0.13;0.812;-24.312;-1.375
19877;-9.78;1.63;2.33;-9.563;23.25;6;-9.92;-0.38;0.72;-10.5;-17.187;-5.125
19930;-10.2;1.25;0.94;-7;36.875;0.937;-9.37;-0.4;1.02;-0.25;-18.75;-4.812
19979;-10.47;0.91;0.22;2.188;76.25;6.625;-9.23;-0.87;1.9;-14.125;-20.187;-0.062
20028;-10.95;1.78;1.62;10.375;84.625;7.062;-9.75;-1.08;1.35;-27.937;-23.75;5.25
20079;-11.03;1.4;0.58;22.062;93.625;6.312;-10.39;-0.77;0.45;-26.875;-21.875;5.25
20130;-10.32;2.16;1.21;15.813;86.625;20.062;-10.11;-0.79;0.91;-12.125;-12.75;0.75
20179;-9.92;3.27;1.08;11.063;70.438;27.5;-9.41;-0.14;1.54;-1.812;-13.188;-1.312
20227;-9.05;2.31;-0.08;36.375;57.313;17.062;-9.69;-0.59;1.4;8.563;-13.563;-1.75
20279;-8.7;1.98;-0.07;41.375;37.25;21.312;-9.4;0.04;1.78;12.375;-13.125;0.312
20330;-7.98;1.99;-0.85;49.563;24.687;13.188;-9.5;-0.26;2.04;15.625;-13.813;0.812
20379;-8.28;1.67;-1.29;41.688;7.562;9.313;-9.64;-0.54;1.87;15.188;-15.563;2.563
20428;-8.51;1.35;-1.26;24.312;-4.5;8.438;-9.97;-0.6;1.42;5.875;-13.625;2.688
20480;-8.51;1.48;-1.95;4.937;-10.938;5.937;-9.77;-0.6;1.83;4.25;-14.25;2.938
20530;-8.77;1.94;-2.03;-8.75;-13.438;-2.25;-9.66;-0.37;1.55;-3.313;-12.375;3.438
20579;-9.43;2.19;-2.72;-5.625;-11.375;-13.875;-9.85;-0.09;1.99;-10.688;-16.125;4.5
20628;-9.36;2.56;-3.1;-9.125;-4.5;-9.5;-9.63;0.01;1.83;-3.063;-15.875;2.625
20680;-8.4;3.4;-2.9;-7.25;-5;1;-9.63;-0.11;2.17;13.188;-17.75;0.625
20730;-8.63;2.93;-2.18;0.25;-12.563;-2.875;-9.21;0.27;2.66;13.313;-16.437;-1.187
20778;-8.76;2.41;-1.46;19.687;-18.5;-4.375;-9.61;0.08;2.53;16.562;-20.5;0.062
20827;-9.29;1.51;-0.88;1.25;-30.562;-5.625;-9.72;-0.69;2.88;20.812;-20.937;0.375
20880;-11.3;2.41;-0.92;-0.437;-45.25;-14.5;-9.96;-0.88;3.18;9.938;-18.375;0.187
20930;-10.72;3.15;-2.42;65.125;-18.562;4.062;-9.27;0.27;3.11;5.25;-14.125;1.25
20978;-9.48;1.87;-2.28;-8.875;-4.125;5.562;-9.29;0.3;3.13;16;-12.313;3.188
21027;-9.3;1.46;-0.15;29.5;-10.375;2.75;-9.26;-0.02;3.24;23.437;-9.125;1
21080;-9.47;2.18;-0.78;17.625;-7.875;8.75;-9.38;0.14;3.19;20.375;-8.188;0.937
21129;-9.56;2.21;-0.31;12.375;-15.25;3.625;-9.38;0.16;3.47;19;-4.625;1.312
21178;-9.22;0.88;-0.38;1.437;-9.688;7.875;-9.27;0.69;3.44;19.562;-3.938;1.312
21229;-9.34;2.19;-0.57;-15.875;-16.937;5.625;-9.3;0.47;2.97;27.25;-0.937;-0.937
21279;-9.15;3.3;0.17;-1.562;-21.875;3.25;-9.41;0.2;3.06;31.125;3.938;-2.563
21329;-9.47;2.22;0.21;5.625;-32.688;2.5;-9.75;0.21;2.21;34;9.5;-3.938
21378;-9.65;1.17;0.15;6.25;-34.125;-1.75;-9.95;0.23;1.49;41.188;25.75;-8.063
21429;-9.46;1.51;0.69;-12.625;-32.813;1.562;-9.91;0.19;0.87;48.125;42.313;-8.688
21480;-9.31;1.76;1;-21.25;-34.063;-0.062;-10.26;0.79;0.08;27.625;74;-6.625
21529;-9.36;2.87;1.82;-2.875;-34.188;-2.375;-9.88;1.47;0.25;34;108.438;0.687
21578;-9.56;1.98;1.68;-11.563;-29.125;-2.438;-11.09;-1.7;1.93;44.625;96.688;-13.063
21628;-9.69;2.04;1.48;-34.625;-18.937;2.875;-11.28;-1.69;1.98;-27.187;84.688;-26.75
21679;-9.79;3.48;1.27;-46.625;-7;7.062;-9.9;-0.75;1.56;-98;75.625;-26.687
21729;-9.14;3.51;1.58;-24.625;-1.5;9.875;-10.01;0.44;0.9;-93.188;56.313;-27.812
21778;-8.91;2.27;1.71;-13.125;-1.437;5.937;-8.77;1.66;0.27;-73.688;39.563;-34.188
21828;-9.23;2.49;2.08;-13.813;-10.313;0.25;-8.96;1.59;-0.51;-48.188;28.875;-28.687
21880;-9.35;2.24;1.82;-12.75;-10.438;-2.813;-9.1;0.76;-1.12;-5.562;17.812;-21.562
21929;-9.37;2.76;1.92;-12.875;-14.063;-1.812;-8.6;-0.69;-1.38;0.062;15.188;-14
21977;-9.4;2.45;1.9;-4.75;-10.75;-0.937;-8.51;-1.13;-1.92;-8.688;-1.437;-6.375
22028;-9.3;2.39;1.4;-11.25;-8.438;3.875;-8.28;-0.75;-2.26;0.875;-19.375;1.437
22079;-9.07;2.04;1.8;-18.5;-10.313;3.313;-9.85;-0.94;-2.68;-26.687;-25.125;5.687
22129;-9.03;2.01;2.04;-21.875;-9.063;0.375;-9.71;-0.05;-3.07;-21.687;-14.75;-5.062
22178;-8.96;2.01;2.12;-43.313;-10.188;-2.563;-9.56;-0.3;-2.83;-5.5;-3.688;-5.125
22229;-9.13;2.97;2.04;-44.438;-9.313;-3.688;-8.5;-0.06;-1.13;-12.188;-19.5;-1.312
22279;-8.75;4;2.4;-27.625;-16.25;-2.313;-10.1;1.99;0.5;15.25;-59.688;19.687
22329;-8.98;2.69;2.08;-16.875;-15.75;0.687;-12.44;-1.31;-1.84;-45.563;-61;9.438
22378;-10.12;2;3.08;-22;-5.187;1.187;-10.56;-1.07;-2.9;23.875;-17.687;-11.313
22430;-9.97;1.19;2.28;-28.562;8.625;1;-9.15;0.8;1.38;-24.187;-40.438;7.937
22479;-10.24;0.82;1.47;-43.125;27.562;1.25;-9.09;-0.75;1.54;17.125;-40.25;-8.625
22528;-10.45;0.11;-0.1;-35;65.75;-8.375;-9.78;-1.84;1.56;-5.812;-46.313;-3.5
22578;-10.5;0.81;0.39;-32.063;108.625;-12.875;-9.4;-0.33;2.74;-42.25;-33.813;0.937
22630;-10.71;4.33;2.89;-5.812;100.813;15.25;-10.13;-0.54;2.12;-15.438;-38.375;-0.562
22679;-11.21;2.98;1.74;61.563;82.625;29.5;-10.19;-0.88;2.12;9.375;-24.75;-3.563
22728;-10.11;2.1;0.65;66.625;76.375;30.875;-9.49;-0.23;1.88;19.875;-19.062;-7.187
22779;-10.4;0.94;0.92;66.125;62.125;36.688;-9.28;-0.37;2.59;38.563;-21.25;-5.375
22830;-8.93;2.07;0.37;76.438;53.688;35.438;-9.54;-1.14;2.14;24.812;-20.812;-2.5
22879;-8.16;1.49;-0.27;85.375;39.688;25.625;-9.65;-0.73;1.91;24.812;-20.312;0.187
22929;-8.14;0.89;-0.79;71.313;22.187;18.125;-9.79;-0.6;1.94;16.937;-21;2
22978;-7.27;0.13;-1.36;35.375;1.5;12.375;-9.63;-0.62;2.25;21.562;-20;1.5
23030;-7.09;0.56;-1.56;11.313;-14.063;-1.312;-9.38;-0.39;2.03;10.938;-19.5;1.562
23079;-8.32;2.89;-2.49;-1.625;-30.25;-16.187;-9.35;-0.61;2.25;11.625;-21.062;1.937
23129;-9.74;2.66;-4.04;8.875;-34.813;-12.25;-9.48;-0.67;2.07;9.938;-22.562;2.063
23178;-10.14;2.59;-4.04;-11.188;-28.5;-6.125;-9.12;-0.11;2.88;27.625;-22.75;2.125
23229;-9.65;2.23;-2.47;17.5;-16.25;0.75;-9.58;-0.68;2.89;31.437;-22.062;5.187
23279;-10.78;0.26;-0.7;14.625;-29.937;-2.813;-10.55;-1.25;3.45;22.75;-20.062;7.5
23329;-10.87;4.5;-2.6;44.188;-39.813;-0.062;-9.98;-0.05;2.13;16.062;-13.125;4.812
23379;-10.64;2.06;-2.67;5.187;-29.875;11.438;-10.94;-0.52;2.16;28.937;0.062;1.187
23429;-8.01;-0.22;0.51;15.688;-40.188;10.125;-10.33;0.5;1.26;30.687;22;-6.25
23479;-9.79;2.44;-0.08;-12.75;-45.25;2.188;-10.17;0.76;0.62;46.75;39.438;-9.25
23529;-9.13;2.2;1.34;-20.562;-45.813;6.562;-10.11;1.47;0.51;38.813;79.125;-9.438
23579;-9.57;1.16;1.12;-9;-38.313;5.375;-10.07;-0.75;1.85;32.875;117.875;-4.187
23629;-9.5;1.64;0.89;-49.938;-28.25;3.375;-11.17;-1.55;3.34;-4.312;90.625;-26.312
23680;-9.34;3.65;1.88;-59.813;-27.062;5.562;-10.69;0.84;1.66;-56.875;90.75;-23.625
23729;-9.22;2.37;1.33;-39.5;-22.187;4.875;-10.69;-0.32;1.29;-45.938;76.125;-27.875
23779;-9.23;2.74;1.31;-45.438;-26.187;5.125;-9.4;-1.18;0.99;-66.5;65.5;-30.375
23829;-9.14;2.7;1.39;-39.375;-24.562;0.25;-8.91;-0.2;0.45;-104;55.375;-18.875
23880;-9.13;2.5;1.57;-20.312;-22.812;-2.25;-8.18;1.93;0.06;-72.938;40.125;-19.25
23929;-9.27;2.34;1.7;-17.5;-25.062;-4.687;-7.86;1.19;-0.36;-5.562;23.062;-15.188
23980;-9.22;1.84;1.82;-15.063;-26.875;-7.125;-7.78;-0.93;-1.01;19.125;1.812;-7.687
24029;-9.05;2.19;2.1;-10.125;-27.937;-7.562;-8.06;-1.39;-2.1;3;-19.937;5.875
24080;-9.11;2.26;2.36;-5.625;-32.188;-8.438;-10.33;-1.97;-3.55;-47.625;-31.875;5.5
24129;-9.36;2.01;1.62;-26;-25.562;-5.5;-10.23;-0.54;-4.76;-16.625;-18.375;-3.375
24180;-9.04;2.44;2.21;-51.25;-10;3.5;-9.21;0.98;-2.75;-23.125;-17;-3.438
24229;-8.69;2.89;2.05;-49.313;-6.187;5.687;-7.56;2.33;1.5;-1.687;-58.375;1.375
24280;-9.95;3.48;1.71;-20.125;-4.5;3.563;-14.37;-3.07;-3.17;3.625;-85.375;13.75
24329;-11.43;3.02;2.21;-7.5;13.438;2.188;-9.29;0.41;-1.23;-20.937;-9.063;-11.313
24379;-11.83;-0.6;-0.18;4.687;49.438;2.813;-7.73;0.66;2.95;47.5;-67;-2.5
24429;-9.82;-0.8;-0.45;-30.375;111.375;-6.437;-9.74;-2.8;1.7;13.5;-34.188;-3.188
24480;-11.04;2.44;2.2;-45.5;135.687;21.125;-9.53;-1.71;3.53;-9.938;-45.688;11.563
24529;-12.87;4.53;3.31;1.75;112.75;43.938;-10.84;-0.08;1.25;-48.438;-33.813;-2.5
24579;-9.66;2.96;1.36;96.938;95.938;29.062;-10.03;0.78;0.65;30.75;-30;-8.313
24629;-9.81;1.47;0.25;77.875;72.938;25.937;-9.43;-0.37;1.91;76.625;-25.312;-12.625
24679;-8.06;2.33;0.4;85.563;55.688;34.875;-9.28;-1.66;2.5;58.125;-26.312;-2.188
24729;-7.45;1.45;0.11;100.063;41.938;18;-9.38;-1.11;2.83;12.938;-31.687;4
24779;-6.93;-0.34;-0.78;69.75;23.875;11.625;-9.49;0.11;1.72;8.625;-29.437;2.125
24830;-6.18;-0.12;-0.99;17.562;-4.062;11.875;-9.69;-0.23;2.38;30.625;-28.687;3.375
24879;-6.34;0.96;-1.96;-12.813;-33.563;-9.313;-9.57;-0.61;1.62;13.875;-21.562;-0.187
24929;-10.56;2.99;-4.15;22.5;-53.625;-32.75;-9.4;-0.97;1.59;19.75;-27;0.687
24979;-11.52;3.62;-6.55;13.75;-30.812;-6.062;-9.44;-1.42;2.16;28.812;-17.687;3.438
25030;-8.98;1.34;-2.62;16.875;-9;11.063;-9.86;-0.99;2.5;30.437;-13.75;5.375
25079;-9.92;-1.9;0.47;-13.813;-41.563;5.125;-11.33;-1.25;1.88;22.75;-12.438;6.312
25129;-10.97;2.61;-2.61;79.188;-59.438;-4.625;-10.7;-0.87;0.53;12.688;3.375;10.688
25179;-10.26;2.26;-1.41;-49.875;-43.188;10.125;-11.27;-1.25;1.08;15.625;26.5;0.687
25230;-7.52;1.06;0.82;-24.062;-48.5;9.625;-10.98;3.67;-1.25;2.438;69.5;-2.5
25279;-8.73;4.66;1.3;-32.188;-40.813;6.312;-9.55;2.62;0.45;63.938;137.562;9.938
25329;-8.97;2.88;2.42;12.813;-47.375;-4.062;-11.92;-1.26;3.84;74.25;119.063;-36.375
25379;-9.59;2.04;1.45;-6.25;-36.375;-1.062;-12.64;-1.09;3.86;-57.75;109.125;-49.25
25430;-9.54;1.86;1.47;-49;-24.875;6.375;-11.48;-0.48;3.06;-102.813;106.875;-42.313
25479;-9.17;3.05;1.75;-61.875;-16.687;13;-8.38;-0.28;0.83;-100.688;80.313;-35.938
25529;-8.97;2.36;1.7;-34.813;-17.687;6.5;-7.61;1.2;1.21;-110.938;38.125;-25.375
25579;-9.36;1.91;1.39;-22.437;-23.5;-3.563;-7.52;2.66;-0.02;-80.875;30.062;-12.313
25630;-9.37;2.45;1.03;-32.438;-28.25;-9.063;-6.94;1.07;-1.2;31.812;9.688;-18.125
25679;-9.39;2.6;1.09;-28.437;-31.75;-11.313;-7.92;-2.17;-2.12;56.438;-15.375;-5.812
25729;-9.16;3.49;1.59;-3;-35.625;-10.25;-9.56;-2.8;-3.75;-7.312;-40.813;11.563
25779;-9.46;2.4;1.2;2.875;-32.688;-3.313;-10.72;-0.86;-5.3;-55.25;-37.625;4.812
25830;-9.05;1.61;1.53;-40.375;-18.937;2.438;-10.25;-0.52;-4.47;4.937;-23.375;3.5
25879;-9.06;3.45;1.34;-57.188;-11.75;6.625;-6.79;1.58;-0.82;-7.937;-31;-1.437
25929;-9.44;3.78;1.38;-40.875;-7.437;9.625;-11.49;3.29;2.08;24.687;-95.938;18.625
25980;-11.4;3.24;1.49;-29.312;7.375;10.563;-12.79;-0.1;-5.78;-139.687;-38.188;5.125
26030;-12.43;1.95;0.53;-6.125;42.063;13.875;-8.25;1.34;5.05;17.375;-13.813;-13.625
26079;-12.16;-0.79;-1.99;18.125;111.563;1.25;-8.64;-0.96;2.4;28.562;-47.5;-6.25
26128;-11.46;2.13;2.06;-21.125;140.625;20.125;-8.92;-2.87;4.05;-14.25;-38.063;2.25
26180;-13.34;3.77;3.29;9.875;123.313;36.438;-10.23;0.16;0.25;-23.25;-37.625;1.937
26230;-10;2.42;1.84;70;105.438;40.625;-9.72;1.04;0.29;33.375;-28.125;-7.562
26279;-9.15;2.57;0.69;80;79.5;33.375;-9.13;-1.43;2.12;83.375;-24.75;-8.375
26328;-7.37;2.72;0.47;87.938;59.25;33.75;-9.32;-1.7;2.07;51.375;-26.25;-2
26380;-6.76;0.26;0.02;107.5;31.062;9.563;-9.28;-0.56;1.99;16.937;-29.812;4.687
26429;-6.35;-0.47;-0.91;40.875;-0.25;9.25;-9.34;-0.47;1.88;7.25;-35.75;7.937
26479;-5.63;-0.17;-1.36;-8.625;-31;0.437;-9.91;-0.62;1.12;4.125;-37.438;9.5
26528;-7.45;2.43;-3.06;-21.562;-60.188;-37;-9.88;-0.98;0.75;-0.875;-30.875;3.875
26579;-13.1;4.03;-7.07;22.187;-74.438;-27.437;-9.88;-0.94;1.42;13.5;-34.563;2.688
26629;-10.45;3.87;-6.03;-0.687;-21.625;0.687;-9.96;-1.13;2.08;30.25;-23.375;2.25
26679;-8.03;1;-1.12;16.5;-36;10.813;-10.06;-0.29;2.11;52.125;-11.063;-3.125
26728;-11.65;4.31;-0.88;7.25;-60.563;0.562;-10.21;-0.85;0.69;48.875;-1.187;1.562
26779;-11.34;0.54;-2.76;67.5;-31.062;18.937;-12.25;-1.66;-0.13;43.75;31.437;4.812
26829;-7.35;-2.34;2.42;-27.25;-30.625;24.062;-11.65;2.48;-1.2;23.562;75.875;-4.375
26879;-9.87;4.49;0.69;-43.563;-51.813;9.25;-10.08;1.05;0.91;46.313;139.75;4.5
26928;-9.44;3.25;2.65;2.688;-45;-2.563;-12.74;-1.85;3.85;79.563;106.813;-41.813
26979;-9.92;0.65;1.07;-39.625;-42.813;9.75;-11.19;-0.82;2.63;-71;104.813;-40.813
27029;-9.18;3.28;2.06;-110.25;-34.313;8.5;-10.3;0.09;1.32;-102.813;93.875;-31.937
27079;-8.69;3.22;2.85;-63.25;-36.25;1.187;-8.3;-1.31;1.2;-100.563;68.438;-38.25
27128;-9.22;1.63;0.97;-35.563;-39.375;-6.875;-7.62;-0.42;1.49;-141.687;36.125;-27.375
27179;-9.38;3.1;1.62;-53.313;-39.438;-9.188;-6.79;2.71;0.23;-85.063;14.438;-24.25
27228;-9.26;2.16;1.06;-43.875;-30.562;-8.188;-6.26;2.13;-0.34;22.312;-18.062;-23.625
27278;-8.91;3.68;1.16;-29.187;-29.125;-10.875;-8.37;0.08;-2.13;21.312;-35.688;4
27329;-8.45;3.45;2.29;11.25;-39.25;-14.875;-11.48;-2.31;-4.45;-51.125;-19.687;5.187
27379;-9.34;1.65;1.79;-21.375;-32.875;-8.438;-10.29;-0.87;-6.39;-31.625;0.812;-12.5
27428;-9.46;1.29;1.88;-52.563;-14.063;1;-7.83;0.63;-3.52;-6.062;-13.938;-5.812
27478;-10.67;4.79;0.18;-53.625;-0.25;5.562;-9.05;2.06;1.48;-4;-82.063;1.5
27529;-13.19;3.1;-0.65;-23;42.875;16.375;-16.59;-5.16;-4.92;-126.688;-71.75;13.813
27579;-13.84;-0.06;-2.5;9.75;141.75;0.125;-7.3;1.12;2.09;52.75;-27.812;-16.625
27628;-11.85;1.83;2.45;-37.875;164.875;24.75;-7.87;-1.28;4.78;-18.187;-79.438;7.125
27678;-13.74;4.77;3.11;12.813;115.938;55.813;-10.64;-4.85;1.36;-16.5;-43.813;-9.938
27729;-9.12;2;2.62;99.313;105.75;38.125;-9.73;2.08;0.94;16.312;-49.938;-10.188
27778;-9.12;1.11;0.64;105.688;84;34.375;-8.88;1.9;1.48;101.25;-39.563;-12
27828;-7.23;1.86;1.17;84.5;66.813;37.25;-9.78;-2.62;3.44;89.5;-42.125;-0.5
27878;-6.43;0.7;1.04;116.938;26.812;5.562;-9.25;-1.71;2.54;37.125;-39.563;-0.562
27929;-6.16;-1.1;0.38;59.875;-4.687;3.313;-9.43;0.07;2.23;25.812;-39.563;3.813
27979;-5.07;-0.89;-1.79;-21.75;-36.063;-1.875;-9.74;-0.41;1.87;30.625;-35.875;4.125
28028;-6.55;2.68;-3.06;12.25;-63.75;-38.875;-9.46;-1.65;0.33;27.375;-32.688;-1.437
28078;-15.61;5.07;-8.36;25.812;-47.375;-6.687;-9.38;-0.8;1.99;44.188;-26.812;3.313
28129;-11.07;1.23;-4.9;22.312;15.813;24.062;-11.5;-2.51;2.24;42.188;-17.937;9.813
28179;-10.18;-1.78;0.06;-5.75;-29.875;13.813;-12.15;-2.01;0.42;24.437;-2.125;5.687
28228;-11.72;4.71;-3.24;102.25;-54.75;4.375;-11.74;-0.76;-1.19;19.562;25.625;6.312
28278;-8.22;-0.82;2.23;-73.938;-34.875;26.875;-13.16;1.84;-2.01;15.75;94.313;-1.437
28330;-8.37;1.34;2.82;-11.375;-68.625;5.562;-10.45;0.07;1.21;65.563;172.812;0.437
28378;-10.71;6.07;2.95;-19.937;-47.688;-8.688;-14.78;-2.02;5.33;81.188;119.625;-77.5
28428;-9.46;0.53;0.71;-45.313;-67.375;3.625;-11.49;-1.73;3.38;-107.188;123.688;-60.938
28478;-8.78;2.09;1.75;-124.813;-55.938;-1.437;-10.98;-0.89;2.53;-156.125;118.5;-45.375
28530;-8.89;2.77;2.04;-65.063;-47.375;-10.25;-7.34;-0.09;2.23;-128.687;80.438;-42.938
28578;-9.38;2;1.1;-36.688;-42.813;-10.125;-5.96;1.76;2.76;-157.812;46.813;-10.625
28627;-9.23;2.64;1.92;-37.188;-47.063;-19.312;-5.34;2.51;0.98;-30.687;0;-8.5
28680;-9.21;2.19;0.68;-19.062;-48.25;-17.75;-6.38;0.21;-1.9;81.25;-45;-11.188
28730;-9.01;3.35;1.29;-10.688;-40.188;-10.313;-11.55;-1.81;-5.28;10.125;-74.188;17
28778;-8.86;3.47;2.48;-20.375;-25.937;-2.625;-13.81;-2.41;-8.5;-41.438;-28.937;7.75
28827;-9.79;1.75;2.88;-31.5;-14.563;7.312;-8.48;0.69;-3.55;7.562;-26.562;1.687
28880;-11.25;1.97;1.57;-42.25;-3.563;0.937;-9.25;2.14;4.34;36.188;-97.313;0
28930;-13.1;2.55;0;-47.563;30.375;2.688;-13.95;0.33;-4.65;-119.875;-50.313;8.875
28978;-11.83;1.61;-0.38;-4.437;104.375;5.125;-7.74;0.24;3.81;85.625;-52.625;-15
29027;-10.9;0.86;0.23;25;145;21.125;-9.39;-3.7;2.72;35.563;-67.75;2
29080;-13.26;2.88;2.91;20.375;123.438;57.75;-9.79;-2.87;2.47;-4;-49;1.312
29130;-11.35;2.82;2.72;90.375;125.813;51.375;-10.14;0.63;0.05;-0.437;-43.563;-1.812
29179;-11.3;1.83;1.54;103.375;112.75;37.813;-9.17;1.11;1.26;77.125;-42;-8.563
29229;-7.96;2.33;1.57;114.813;93.188;38.938;-9.36;-2.12;2.34;80.25;-38.688;-1.937
29280;-5.62;0.25;0.92;115;61.438;5.125;-9.08;-0.8;2.66;41.938;-42.625;3.188
29330;-4.59;-1.78;1.01;65.875;-0.562;-12.25;-9.22;-0.24;1.82;23.062;-37.813;6.687
29378;-4.45;-1.83;-1.19;-23.75;-45.625;-10.375;-9.51;-0.69;2.41;14.375;-42.938;9.688
29430;-8.59;2.3;-4.51;-56.75;-100.438;-32.125;-10.24;-1.23;0.22;21.375;-45.875;5.187
29480;-18.72;8.71;-9.72;40.75;-56.688;-9.875;-10.79;-1.9;1.06;36.5;-26.875;11.688
29530;-7.38;-0.25;-3.47;12.938;31.375;34.813;-11.17;-2.56;2.06;26.75;-3.563;8.063
29578;-9.39;-0.94;-0.55;-59;-39.875;15.5;-11.64;-1.14;-0.67;12.438;18.687;-2.313
29630;-8.79;0.95;0.14;67.875;4.687;40.313;-12.58;1.2;-2.71;8.875;75;0.5
29680;-10.9;-0.31;2.92;-39.563;-48.75;-1.437;-11.25;2.55;-1.09;54.438;166.812;9.688
29730;-10.51;5.17;1.94;-40.688;-68.563;12;-13.52;-2.02;5.8;84.063;130.875;-61.313
29778;-9.2;2.04;1.51;-25.437;-65.813;-4.75;-13.09;-1.94;3.95;-77.313;120.25;-64.688
29830;-9.53;0.45;1.57;-93.75;-69.375;1.125;-10.82;-0.77;2.63;-133.437;122.25;-56.938
29880;-9.01;3.13;2.18;-112.313;-51.75;-5.875;-7.52;-0.51;2.41;-139.375;99.938;-54.688
29929;-8.92;2.95;1.66;-53.063;-53.25;-12.625;-5.78;0.69;3.18;-167.562;68.063;-19.312
29978;-9.17;2.56;0.94;-28.875;-51.438;-21.375;-5.14;3.14;1.49;-89.438;14.188;-11.688
30030;-9.14;2.34;0.99;-15.5;-53;-21.312;-5.47;1.83;-1.51;65.813;-33.625;-20.375
30080;-9.14;3.11;0.99;-14.563;-43.688;-10.5;-8.67;-1.33;-3.29;31.687;-68.438;2.75
30129;-9.09;2.58;1.97;-20.312;-35.688;-3.125;-14.33;-3.3;-8.17;-25.812;-57.5;9.375
30177;-9.34;1.99;3.15;-39.125;-20.312;3.188;-11.42;-1.86;-5.27;21.625;-18.25;3.375
30230;-11.68;2.97;1.93;-43;-10;9.75;-7.75;3.78;0.87;-11.875;-71.625;1.375
30280;-12.61;3.45;-0.38;-47.063;18;5.625;-14.77;-0.5;-2.04;-106.688;-101.875;19.062
30329;-12.49;1.64;0.15;-14.063;102.688;14.375;-8.53;-0.4;0.12;87.063;-43.125;-20.375
30377;-11.47;0.57;-0.41;29.062;151.125;12.375;-7.01;-1.22;5.7;65.188;-68;3.938
30430;-13.52;2.98;3.23;1.875;133.437;61.625;-10.45;-3.95;2.69;-22;-56.938;4.687
30480;-12.45;3.34;3.67;89.063;123.063;55.125;-10.11;0.76;0.15;12.188;-44.25;0.187
30528;-10.26;1.97;1.79;117.188;111.438;36.313;-9.4;1.3;0.05;82.438;-37.438;-17.875
30577;-7.3;2.53;1.52;103.188;90.063;41.188;-8.86;-0.9;3.18;90.75;-46.188;-1.312
30630;-5.99;0.69;1.2;121.563;54.688;10.813;-9.38;-2.22;2.31;60.438;-43.375;0.437
30680;-5.41;-1.47;1.26;97.938;7.25;-2.625;-9.35;-0.33;1.64;14.438;-43.563;6.937
30728;-4.9;-2;-0.79;-0.312;-33.625;-8.188;-9.66;-0.28;2.55;16.062;-42.188;7.437
30778;-5.78;1.11;-2.85;-40.063;-87.438;-36.188;-9.61;-1.06;1.15;26.687;-49.313;4
30830;-17.64;5.32;-8.82;8.188;-87.125;-19.187;-10.1;-1.01;1.2;34.188;-33.188;4.625
30880;-10.64;3.15;-5.01;56.75;28.687;23;-10.99;-2.53;2.88;41;-15.688;10.688
30928;-9.51;-1.6;-0.84;-10.438;-29.375;16.812;-12.36;-1.24;-0.06;33.938;4.375;-1.562
30980;-11.52;4.63;-2.59;96.625;-56.375;11.875;-12.06;-0.01;-2.13;38.063;40.375;-5.812
31030;-10.31;-1.33;0.96;-48.438;-68.688;16.125;-10.91;3.84;-2.09;45.688;138.875;-1
31080;-8.55;2.86;2.8;-28.187;-61.25;7.062;-12.28;-3.2;5.47;88.75;168.062;-32.25
31128;-9.07;4.53;3.03;-15.563;-50.438;-7.875;-14.06;-2.58;4.28;5.625;118.313;-70.688
31180;-9.39;-0.14;1.05;-54.688;-62.563;2.438;-12.65;-0.44;2.67;-124.063;124.063;-60.5
31230;-9.01;2.64;1.52;-126.5;-49.625;0.312;-8.71;-0.11;2.27;-150.625;119;-51.188
31279;-9.15;3.34;1.47;-70.563;-47.125;-7.25;-6.69;-0.49;3.07;-144.25;82.063;-38.813
31328;-9.28;2.89;0.94;-26.625;-44.75;-11.875;-5.18;2.4;2.39;-148.687;34.063;-7.25
31380;-9.36;1.39;1.33;-23.875;-46.813;-14.75;-4.55;3.03;-0.31;3.438;-15.563;-19.437
31430;-9.23;1.79;1.12;-30.187;-48.188;-15.75;-7.16;-1.06;-1.79;58.563;-56.375;-9.75
31479;-9.28;2.94;1.44;-18.75;-43.188;-10.563;-13.02;-2.54;-6.74;-29.812;-77.688;15.625
31528;-9.22;2.96;2.68;-33.25;-27.187;2.25;-12.65;-1.61;-6;-22.875;-26;8.5
31580;-10.08;1.8;2.52;-55.313;-10.625;10.625;-8.39;1.52;-1.12;-12.438;-49.375;5.937
31630;-11.18;3.28;-0.04;-44.063;-2.063;4;-11.39;-0.21;2.06;21.625;-102.688;4.812
31678;-12.99;1.79;-0.34;-40.625;43.063;10;-8.95;1.09;-1.79;-34.375;-43.938;-9.563
31727;-11.51;0.26;-1.57;-8.25;123.688;3.125;-8.47;-0.31;5.36;58.188;-59.438;-0.437
31780;-11.55;3.61;3.77;-19;149.562;35.813;-10.49;-3.53;2.61;4.687;-57.063;5.437
31830;-13.19;3.37;2.73;62.5;116.625;56.5;-10.86;-1.21;1;1.25;-54.813;4.187
31878;-10.49;1.05;2.64;128.125;118.938;40.125;-9.63;1.74;-0.83;35.313;-34.125;-12.563
31928;-10.02;0.73;0.84;102.813;111.375;34.875;-8.79;0.12;2.24;93.813;-36.188;-8.5
31980;-6.83;1.96;1.48;90.375;93.438;35.438;-9.22;-2.23;2.88;84.563;-43.813;-2.125
32030;-5.39;0.7;1.24;109.75;57.25;4.5;-9.17;-0.98;2.17;22.437;-39.813;5.375
32078;-4.71;-1.29;0.62;62.25;-0.5;-10.313;-9.56;-0.21;2.11;14.375;-42.375;5.312
32127;-4.56;-0.64;-2.13;-36.313;-49.438;-4.562;-9.46;-0.27;1.79;3.875;-39.25;5.562
32180;-11.41;4.65;-6.03;-12.125;-97.75;-22.937;-9.74;-1.18;1.52;20.5;-36.625;1.937
32230;-13.39;4.88;-6.95;19.875;-67.313;7.312;-11.02;-0.83;2.23;40.688;-22.937;4.062
32278;-11.24;0.46;-2.85;13.063;-26.625;17.187;-11.13;-1.82;1.78;42.5;-3.563;4.375
32328;-9.51;3.33;-3.09;40.938;-42.063;21.187;-10.95;-1.59;-0.33;16.375;10.875;-2.063
32380;-3.47;-3.98;2.8;-12;-27.687;30.125;-12.16;1.56;-2.59;13.5;58.938;-5
32429;-12.07;3.29;1.26;-14;-36.063;-3.438;-11;2.36;-1.6;58.563;147.437;10.938
32478;-9.46;2.84;1.78;-20.75;-50.438;3;-12.81;-3.53;5.02;85.125;134.812;-49
32529;-9.81;2.96;1.22;-49.625;-60.813;-0.625;-13.02;-1.36;3.31;-64.938;114.75;-65.063
32580;-9.72;1.25;2.3;-69.25;-76;-0.75;-12.25;-1.01;2.17;-128.125;126.125;-45.688
32629;-9.05;1.02;2.1;-103.688;-71.625;-11.375;-9.09;-1.18;2.28;-128.75;116.188;-48.438
32677;-9.13;2.39;1.55;-63.938;-57.75;-18.312;-6.01;0.14;3.37;-147.875;84.313;-18.812
32729;-9.12;2.45;1.28;-44.25;-56.188;-17;-4.38;2.06;1.69;-77.25;14.875;-4.875
32780;-9.46;1.73;1.15;-31.312;-41.5;-15.375;-4.97;1.18;-1.09;52.313;-40;-20.75
32829;-9.32;2.27;1.33;-16.312;-41.563;-11.75;-7.73;-1.28;-2.45;30.5;-74.375;-10.375
32877;-9.35;2.65;2.31;-26.687;-35.5;-2.688;-14.07;-2.32;-7.64;-34;-73.313;17.562
32930;-10.26;2.56;2.37;-33.5;-19.75;4.937;-10.72;0.26;-4.69;29.875;-37.5;3.438
32980;-11.42;2.39;1.11;-44.063;-2.438;10.125;-8.31;3.82;1.5;12.625;-79.5;4.5
33028;-11.47;3.32;-0.25;-51.313;17.687;8.125;-14.33;-0.86;-3.46;-85.5;-103.625;11.563
33078;-11.98;1.79;0.23;-15.563;93;16;-8.53;-0.22;0.82;80.688;-40.375;-18.75
33130;-11.22;0.1;0.25;39.063;148.687;7.812;-8.71;-2.57;3.64;66.563;-64.438;2.938
33179;-13.46;2.2;3.21;-20.312;136.312;65.125;-10;-3.76;2.8;-14.563;-52.438;3.875
33228;-12.23;3.24;3.27;56.813;120.063;60.938;-10.06;-0.27;0.6;15.438;-47.563;3
33278;-11.18;2.71;2.31;114.813;112.938;40.438;-9.59;1.85;-0.03;46.375;-38.75;-16.062
33330;-7.58;1.75;1.57;113.625;98.438;41.375;-9.23;-1.15;2.73;104.625;-43.938;0.375
33380;-5.36;0.68;1.17;117.25;71.063;15;-9.17;-2.41;3.09;55.188;-44.438;0.375
33428;-4.25;-1.11;1.33;94.75;13.063;-2.938;-9.14;-0.27;1.52;20.687;-45.313;5.312
33477;-4.35;-2.06;-0.82;4.937;-33.25;-0.437;-9.36;-0.17;2.12;10.063;-44.563;9.375
33530;-7.86;2.41;-4.73;-39.625;-69.875;-23.187;-10.39;-0.62;0.71;19.062;-49.5;7.437
33579;-16.52;6.47;-8.85;43.938;-72.688;-20.687;-10.11;-1.67;1.4;46.063;-30.375;5.375
33628;-8.97;0.59;-4.2;33.688;1.562;17.062;-11.18;-1.87;2.43;47.25;-10.313;6.875
33678;-9.77;-1.59;-1.88;-4.625;-29.312;10.125;-11.68;-1.99;-0.61;41;7.937;-0.937
33729;-9.36;2.81;-1.31;95.375;-32;21.062;-12.43;-0.96;-2.11;21.375;52.75;1.937
33779;-10.61;-1.69;1.84;-62.875;-58.875;11.75;-10.65;4.06;-2.42;31.312;146.562;3.063
33828;-9.22;3.23;2.51;-51.25;-75.875;16.25;-11.8;-2.85;5.07;81.375;162.125;-30.437
33878;-8.7;4.15;3.41;-24.75;-61.438;-10.563;-13.68;-2.39;3.91;-25.375;110.5;-73.313
33929;-9.15;-0.2;1.56;-55.875;-72.875;-1.125;-12.68;0.1;2.73;-139.125;120.438;-59.5
33979;-9.02;2.09;1.47;-133.625;-61.063;-2.25;-9.15;-1.02;2.41;-153.75;117.563;-52.313
34027;-9.22;3.57;1.74;-88.875;-49.813;-11.5;-6.77;-0.21;3.23;-159.125;92.75;-37.688
34078;-9.22;3.03;0.61;-25.687;-52.688;-12.5;-4.84;2.19;2.45;-145.625;36.688;-6.687
34130;-9.08;1.43;1.27;-20.937;-50.625;-19.125;-4.51;3.53;0.42;9.563;-13.438;-18.25
34179;-9.11;2.42;1.39;-40.375;-41.875;-11.25;-7.48;-0.41;-2.89;82.813;-57.5;-4.5
34228;-9.12;3.7;2.15;-26.437;-36.625;-7.187;-13.14;-2.71;-6.03;-19.875;-71.125;17.687
34279;-8.58;2.62;2.35;-23.625;-27.937;-0.312;-12.15;-2.01;-5.71;0.375;-30.062;-2.563
34330;-9.83;2.32;3.42;-31.062;-15.938;3.563;-8.97;3.43;-0.56;-44.813;-55.813;7.75
34379;-11.63;3;0.2;-25.562;-11.5;2.938;-11.96;-1.26;1.02;-48;-105.188;8.75
34427;-13.3;1.84;0.34;-22.75;47.438;14.688;-9.59;1.02;-1.79;75.375;-37.813;-17.062
34478;-11.29;0.11;-1.03;20.375;119.25;9.313;-7.76;-2.05;5.3;105.125;-61.625;-5
34530;-12.09;1.74;3.5;5.312;151.125;33;-9.76;-3.99;2.05;-8;-56.938;5.75
34579;-13.69;4.01;3.61;29.687;128.25;58;-10.39;-0.69;1.1;12.188;-45.25;5.687
34627;-11.65;1.83;3.16;116.125;123.813;48.25;-10.12;1.05;-0.4;62.313;-35.313;-12.938
34679;-9.4;1.26;0.99;98.188;117.688;35;-9;-0.05;2.02;93.688;-40.938;-2.563
34729;-7.01;2.12;1.84;94.5;89;32;-9.19;-1.85;2.5;68.375;-41.063;2.688
34779;-4.29;0.19;1.51;106.688;48.125;4.312;-8.94;-0.88;1.78;23.937;-43.25;9.938
34827;-4.06;-1.39;0.04;47.188;-12.875;-12.313;-9.47;-0.18;1.9;7.187;-48.188;13.938
34880;-4.95;0.87;-3.66;-16.25;-48.563;-19.5;-9.63;-1.01;0.23;3.875;-49.5;8
34929;-15.18;4.34;-8.45;-24.312;-108.75;-29.812;-10.16;-0.65;0.75;19.875;-40.688;9.063
34979;-13.65;4.64;-6.91;27.25;-33.063;6.562;-10.62;-2.06;2.8;47.938;-21.625;7.75
35029;-8.89;-0.69;-1.85;26.625;1.687;16.687;-12.91;-1.7;1.08;33.75;-1.812;4.125
35080;-11.61;4.98;-4.01;12;-63.125;16.125;-11.64;-1.42;-1.23;34.063;27.375;2.625
35129;-6.6;-2.28;1.88;18.375;-9.125;47.063;-12.4;0.67;-2.14;3.563;86.5;-2.75
35179;-8.29;1.16;4.42;-16.5;-50.813;-1.75;-11.4;3.03;-0.74;47.813;172.312;-0.687
35229;-8.64;6.44;4.55;-65.25;-48.813;5.187;-14.66;-2.52;5.59;84.188;121.75;-75
35280;-9.08;1.38;2.22;-17.937;-61.125;-6.625;-12.49;-1.68;3.67;-102.875;114.75;-69.125
35329;-9.62;0.5;1.37;-86.438;-66.563;-1.5;-11.78;-0.68;2.54;-144.187;119;-56.875
35379;-8.97;2.5;2.36;-125.875;-58.938;-6.312;-7.28;-0.16;2.53;-150.5;94.313;-51.938
35429;-8.89;3.1;1.37;-75.875;-48.313;-12.5;-5.74;0.93;3.45;-170.562;54.188;-15.438
35480;-9.09;2.44;1.6;-29.375;-42.5;-15.438;-4.92;3.53;1.59;-72.563;2.813;-6.562
35528;-9.18;1.32;0.62;-22;-47.125;-17.187;-5.83;1.42;-1.77;76.188;-39.5;-17.5
35579;-8.97;3.45;1.78;-21.687;-40.063;-13.25;-10.27;-1.94;-4.06;14;-66.438;16.812
35629;-9.43;3.17;2.14;-19.437;-36.563;-5.437;-13.85;-2.87;-8.27;-31.5;-46.125;7.062
35680;-9.68;2.21;1.91;-36;-11.75;7.437;-9.48;0.03;-4.15;40.688;-34;0.937
35728;-11.92;2.99;0.91;-37.875;-0.062;10.063;-8.28;2.23;2.75;15;-81;4.062
35780;-12.8;1.97;-0.97;-35.75;26.75;6.125;-12.8;1.28;-4.39;-134.562;-57.438;7
35829;-11.89;1.29;-0.5;-15.188;106.5;9.938;-7.81;1;4.71;77.688;-46.625;-12.563
35880;-11.81;1.27;1.87;27.812;146.875;21.625;-9.74;-4.56;2.73;37.688;-69.375;7.812
35928;-14.04;2.8;2.94;-8.438;126.5;61.188;-10.29;-3.71;2.27;-8.25;-49.313;0.437
35979;-10.35;3.93;2.92;61.375;120.188;53.875;-9.67;1.87;-0.73;7.562;-40.563;-5.75
36029;-9.61;2.16;1.73;107.875;107.75;39.125;-8.82;-0.06;1.9;88.063;-37;-8.563
36079;-6.72;1.85;1.19;100.438;82.063;36.375;-8.87;-2.51;2.65;79.25;-38.188;-0.687
36128;-5.53;0.17;1.13;117.25;47.813;4.812;-8.89;-0.92;2.55;16.562;-41.5;5.812
36179;-4.94;-1.64;0.12;75.375;2.313;-5.937;-9.91;0.1;2.15;10.375;-49.125;12.188
36229;-4.96;-0.19;-2.53;5;-31.062;-2.688;-9.69;-1.07;0.4;11.375;-48.875;7.687
36279;-9.95;3.34;-5.01;4.437;-64.438;-31.812;-9.95;-0.95;1.85;23.625;-41.563;6.625
36328;-12.86;3.44;-7.62;10.375;-69.5;-4.5;-11.09;-1.67;1.51;39.313;-29.562;2.813
36379;-9.3;1.72;-3.55;-12.25;-31.5;18.75;-10.58;-0.87;1.06;54.25;-6.687;1.625
36429;-10.55;1.16;-1.93;4.062;-39.938;2.813;-11.48;-2.31;-0.23;33.438;14.063;3.313
36479;-5.95;-1.58;3.42;79.75;-1.187;32.875;-12.28;-0.13;-1.5;18.875;61.938;-1.75
36528;-8.41;-0.12;3.42;-62.438;-44.563;18.437;-10.72;4.96;-2.39;38.188;158.187;10.063
36579;-10.14;4.64;2.63;-21.562;-65.25;4;-12.99;-2.34;5.6;124.813;140.562;-49.188
36629;-9.06;2.64;2.09;-7.562;-63.813;-3.813;-12.26;-2.44;3.74;-21.562;117.375;-67.375
36678;-9.36;-0.26;1.98;-104.125;-79.688;2.25;-12.28;-1.06;2.93;-160.75;118.188;-51.563
36729;-8.71;3.13;2.26;-114.563;-64.5;-16.062;-8.55;-1.23;2.72;-165;110.875;-50.375
36779;-9.19;2.83;1.6;-55.875;-56.25;-14;-5.35;0.59;3.39;-178.812;73.688;-25.375
36829;-9.57;1.68;0.98;-38.188;-37.688;-5.875;-4.64;2.79;1.79;-102.125;22.375;-9.25
36878;-8.69;1.44;1.62;-45.25;-35.563;-10.5;-5.21;1.87;-2.13;74.375;-28.312;-34
36930;-9.16;3.27;2.75;-20.312;-40.125;-16.125;-9.72;-1.73;-1.68;44.938;-67.563;-9.563
36979;-9.5;2.68;1.9;-4.625;-41.688;-7.5;-14.43;-1.73;-8.06;-43.375;-72.688;21.687
37030;-10.01;2.25;2.55;-26.75;-17.875;7;-10.89;-0.89;-5.7;35.875;-25.75;-1.375
37078;-11.43;1.81;1.46;-46.625;0.375;12.438;-8.85;3.89;0.45;-3.375;-77.438;3.563
37130;-11.76;3.88;0.49;-60.25;25.75;6.937;-15.61;-0.59;-2.53;-83.563;-88.313;23.75
37179;-11.74;1.43;-0.77;-11.125;80.25;12.688;-7.44;-1.09;1.7;117.188;-53.875;-27.562
37229;-10.86;1.11;1.05;34.5;149.25;13.25;-8.24;-2.52;3.78;50.313;-65.563;6.437
37278;-14.19;3.39;3.04;-1;130.687;66.25;-10.45;-3.73;3.18;-36.688;-54.813;11.625
37330;-11.74;3.62;3.22;89.5;117.938;57.375;-10.27;0.57;-0.48;12.125;-47.125;-0.187
37379;-11.63;2.76;2.09;109.938;111.563;42;-9.4;1.21;0.44;67.5;-32.063;-14.375
37429;-8;2.1;1.2;114.5;92.313;35.625;-8.86;-1.43;3;98.063;-38.5;0.562
37478;-5.72;0.85;0.86;118.188;53.375;3.25;-9.16;-1.76;2.74;54.438;-43.625;0.062
37530;-4.79;-1.22;0.73;70.938;3.625;-7.25;-9.01;-0.21;1.5;11.875;-42.063;9.125
37579;-3.81;-1.76;-0.99;7.625;-23.062;-7.875;-9.79;-0.52;1.45;5.187;-43.25;7.25
37629;-6.4;1.58;-3.18;-48;-98.938;-42.938;-9.89;-0.57;1.06;23.75;-46.313;5.375
37678;-18.11;4.61;-9.72;9.938;-96.063;-7.687;-10.4;-1.83;0.88;30.25;-38.438;9.438
37729;-10.61;4.35;-4.89;-5.562;-3.063;30.125;-11.45;-2.05;1.91;40.313;-16.062;8.563
37779;-8.74;-0.77;-0.31;0.437;-26.437;9.188;-12.14;-1.74;0.07;30.125;9.875;-1.187
37828;-13.35;2.88;-2.77;92.938;-30.062;26.687;-12.46;0.07;-2.03;25.687;65.5;-3.25
37878;-4.77;-3.18;4.49;-26.812;-37.625;9.25;-10.32;3.58;-1.83;45.625;162.562;4.625
37929;-9.87;6.02;1.23;-39.063;-61.75;8.063;-13.16;-2.87;5.72;100.75;148.312;-50.563
37979;-8;2.14;2.75;-12.375;-56.75;-5.875;-12.77;-2.75;3.96;-21.937;117.875;-62.438
38028;-9.18;0.25;1.53;-94.375;-58.75;1.312;-12.09;-1.04;2.78;-147.812;121.063;-51.875
38080;-8.73;3.21;2.32;-126.063;-55;-3.313;-7.9;-0.75;1.99;-146.812;114.375;-44.688
38129;-8.88;2.66;2.38;-63.313;-50.875;-15.938;-6.13;0.27;2.88;-162.062;66.688;-24.25
38179;-9.06;2.31;1.08;-37.438;-49.313;-16.625;-4.89;2.56;2.1;-133.875;22.375;-5.687
38228;-9.68;2.14;1.75;-30.5;-48.25;-23.625;-4.79;2.36;0.45;-25.75;-17.5;-15.25
38279;-9.82;3.52;0.66;-25.5;-46.5;-14;-7.34;0;-2.45;40.5;-56.813;-13.625
38329;-8.86;3.01;0.82;-20.25;-29.062;0.875;-15.26;-2.02;-8.84;-23.437;-84.125;23.5
38379;-9.43;1.88;2.82;-52;-17;3.5;-11.46;0.23;-5.63;23.75;-9.375;-1.5
38428;-11.39;2.5;1.43;-50.625;-2.375;6.937;-5.25;1.78;0.54;21.25;-43.563;-14.813
38479;-11.19;3.27;0.05;-48.313;26.687;6.5;-17.72;-2.52;-3.72;-17;-124.625;15.75
38529;-12.41;1.49;0.68;-5.687;105.125;16.5;-7.35;0.8;0.91;41.688;-44.313;-29.75
38579;-10.82;-0.74;-0.21;20.187;151.5;20.062;-7.34;-0.04;5.88;55.188;-76.313;9
38628;-13.68;2.73;2.85;-30.25;126.313;65.75;-10.69;-6.41;2.22;-16.875;-53.25;5.25
38679;-11.74;3.21;2.89;66.625;117.5;53.125;-10.56;0;0;-0.312;-51.375;4.625
38729;-11.46;1.93;2.27;127;105.063;39.625;-9.52;1.64;0.4;26.312;-32.188;-19.25
38779;-8.18;1.6;1.36;112.5;86.5;38.5;-9.43;-1.44;2.85;84.813;-39.688;-1.437
38829;-5.74;1.42;1.01;111.938;55.5;14.875;-9.27;-1.72;2.59;52.063;-39.5;-5.062
38880;-4.84;-0.95;1.28;85.25;6.875;-0.375;-9.02;-0.38;2.49;25.187;-38.563;3.625
38928;-4.15;-1.82;-0.83;-10;-32.313;1.5;-9.85;-0.07;1.72;20.25;-45.375;8.125
38979;-6.28;1.53;-3.71;-34.188;-75.688;-30.75;-9.42;-0.71;0.02;43.75;-40.625;3.625
39030;-17.5;7.19;-9.67;53.625;-91.625;-20.875;-10.53;-3.33;-0.1;69.375;-30.687;6.187
39079;-10.32;-1.38;-3.3;23.625;-8.063;19.25;-11.65;-2.87;1.68;43.813;3.125;6.812
39128;-8.4;0.81;-1.78;-33.375;-44.688;27.25;-11.08;-1.39;-1.38;7.125;13.375;1.437
39178;-7.63;0.57;4.36;10.5;23.312;60.313;-13.92;1.93;-1.85;-0.625;72.188;4.625
39230;-8.36;-1.92;5.07;-44.438;-51.563;-9.875;-11.63;1.38;0.86;51.625;167.75;9.5
39279;-12.14;7.47;3.05;-15.5;-65;3.375;-14.6;-1.43;4.82;84.625;112;-59.75
39328;-8.44;0.98;1.28;-7.062;-70.313;-6.625;-12.04;-2.31;3.57;-52.5;117.25;-55.125
39378;-9.65;1.12;1.14;-116.125;-63.813;-2.938;-10.72;-1.14;2.08;-134.562;111.938;-53.313
39430;-8.62;3.38;1.91;-93.063;-54.563;-7.5;-6.85;-1.47;2.2;-144.937;85.25;-50.438
39479;-9.45;3.47;0.4;-46.875;-49.375;-13;-6.2;0.87;2.28;-179.625;48.188;-19.75
39528;-9.19;1.57;0.87;-38.313;-43.5;-10.938;-4.75;4.14;0.89;-99.813;16;-10.25
39578;-8.97;2.46;1.16;-58.188;-37;-8.5;-5.31;3.58;-0.53;55.625;-39.5;-19.375
39630;-8.38;2.96;1.28;-49;-35.5;-9.25;-10.14;-1.14;-3.82;76.875;-72.625;13.625
39679;-8.61;4.35;2.97;-28.5;-34.063;-8.188;-13.68;-4.55;-8.87;-87.938;-25;6.125
39728;-9.96;2.32;1.97;-40.563;-17;-0.437;-8.72;-0.26;-5.03;-5.812;-4.875;-3.563
39779;-11.53;3.53;-0.44;-55.75;3.5;3;-6.52;3.71;3.42;7.812;-91.063;1.062
39829;-13.95;2.25;-1.14;-33.25;70.25;18.5;-18.02;-2.56;-3.95;-144.062;-72.563;12.75
39879;-13.21;0.12;-0.82;7.937;153.437;12.875;-4.78;2.55;4.66;115.125;-43.625;-27.062
39928;-12.25;1.28;3.91;-41.813;144.312;61.063;-11.89;-5.94;3.98;-24.937;-80;18.437
39979;-12.77;3.29;2.91;54.25;122.625;57.438;-9.55;-3.15;0.63;45.938;-36;-23.562
40030;-10.78;2.62;3.37;128;111.063;37.5;-10.14;1.76;-0.81;9.938;-38.188;-17.312
40079;-8.3;1.74;1.84;138.812;92.813;38.688;-8.31;-0.21;2.9;126.188;-38.813;-4.75
40128;-6.06;1;1.59;111.625;62;17.687;-9.23;-3.38;2.17;52.688;-38.563;-6.187
40179;-5.06;-0.64;1.16;95.063;9.563;11;-9.39;-0.22;2.42;25.937;-39.125;5.062
40229;-4.48;-1.47;-0.3;4.75;-30.812;8.188;-9.55;0.21;1.98;19.187;-41.938;6.875
40278;-5.27;0.63;-2.77;-34.813;-61.938;-24.125;-9.02;-0.53;1.62;34.25;-42.563;2.938
40328;-15.37;5.61;-8.51;58.625;-118.063;-49.188;-9.6;-1.6;0.87;50.688;-36.438;6.75
40380;-11.96;2.63;-5.66;-2.938;14.75;28.187;-10.56;-2.32;2.43;58.375;-14.688;4.812
40430;-8.85;-1.95;-1.02;50;-11.688;7.812;-12.55;-2.34;-0.38;47.563;1.75;-4.437
40479;-14.53;3.29;-5.34;149.062;-40.625;15.313;-13.16;-2.05;-1.64;30.875;49.313;0.625
40528;-4.32;-5.94;3.67;-69.875;-49.813;25.875;-12.04;4.95;-2.95;41.25;132.625;7
40580;-9.26;5.89;4.24;-98.313;-80.938;14.438;-11.18;-2.93;4.69;137.75;153.5;-24.5
40630;-8.39;3.49;3.69;25.5;-68.5;-12.938;-14.14;-3.38;3.68;9.688;111.625;-55.813
40678;-9.02;-1.71;0.84;-69.563;-77.125;3.5;-10.72;-1.43;2.86;-149.875;110.438;-54.688
40728;-9.3;3.65;1.83;-177.312;-62.188;-1.062;-9;-0.98;1.92;-168.75;107.25;-48.75
40780;-9.34;4.14;1.56;-86.563;-42.375;-10.125;-7.47;-1.25;2.99;-185.562;68.438;-45.5
40830;-9.14;2.95;0.46;-43;-37.5;-8.25;-6.73;1.19;3.09;-207.625;41.625;-16.187
40878;-8.76;0.8;1.87;-27.187;-41.75;-19.812;-6;4.74;1.68;-52.563;12.688;-21.125
40929;-9.28;2.68;2.05;-30;-54;-25.562;-6.45;3.54;-1.2;57.875;-33.688;-20.875
40980;-9.32;3.46;0.62;-11.313;-51.75;-14.5;-9.92;0.32;-4.12;6.625;-60.188;26.562
41030;-8.66;3.29;2.27;-18.062;-28.75;-1.062;-14.89;-2.2;-10.61;-37.688;-38.25;13.063
41079;-10.52;0.91;3.04;-50.5;-11.063;1.25;-7.57;-1.4;-4.81;28.75;-10.438;-13.188
41129;-11.52;3.66;0.05;-47.25;10.188;3.875;-6.78;4.37;4.33;44.313;-87.688;0.687
41180;-14.09;3.82;0.34;-28.687;62.438;12.188;-14.97;-1.23;-4.63;-199.437;-74.75;23.875
41230;-12.06;-0.03;-1.18;36.188;137.187;11.5;-4.89;3.45;5.32;148.812;-65.375;-41.688
41279;-11.98;0.91;3.02;-16.125;140.687;62.188;-11.04;-7.14;3.45;46.375;-80.938;12.875
41330;-12.71;3.65;2.95;45.375;121.063;68.125;-9.49;-1.67;0.7;4.375;-54.125;-15.438
41380;-11.43;1.92;2.78;151.25;107.188;48.625;-10.28;1.31;-1.41;31.25;-56;-7.125
41430;-9.13;1.28;1.71;142.125;109.5;39.25;-8.72;0.66;1.39;110;-37.875;-10.75
41478;-6.39;0.71;1.59;113.313;85.75;21.937;-9.36;-3.15;3.13;82.75;-45.813;-1.187
41530;-4.22;-0.95;1.16;100.063;34.813;-3.625;-8.97;0.09;2.44;19.125;-47.875;5.75
41580;-3.99;-1.61;0.15;23.625;-23.812;-9.438;-9.45;0.29;2.37;22.937;-46.875;4.687
41630;-4.07;0.53;-2.97;-45.188;-64.063;-21.625;-9.11;-0.86;0.79;25.437;-50;6.875
41678;-14.48;3.18;-8.39;-5.562;-125.313;-33.313;-10.82;-1.49;1.02;57.438;-37.563;4.062
41730;-13.49;3.3;-5.73;59.5;0.187;23.562;-11.7;-3.15;2.35;44.688;-17.812;12.25
41780;-7.32;-2.76;-1.68;3.375;-6.062;10.188;-12.74;-2.13;-1.42;29.187;10.813;-3.438
41829;-14.64;4.99;-5.42;133.562;-57.75;14.813;-13.23;0.81;-3.25;25.375;79;-2
41878;-6.7;-2.31;2.87;-57.188;-54.313;29;-10.9;3.76;-1.52;62.125;181.875;8.5
41930;-10.98;6.19;3.22;-30.5;-80.563;1.75;-15.6;-2.96;6.4;113.563;133.5;-78.813
41980;-8.09;1.09;2.58;-3.188;-72.875;-6.5;-12.56;-1.14;3.42;-82.75;123.875;-72.313
42029;-9.08;-1.42;1.02;-104.063;-77.875;2.5;-11.96;-2.43;2.77;-149.812;122.375;-68.563
42078;-9.05;3.07;2;-165.125;-58.188;-3.375;-7.18;-0.72;2.84;-178.062;110.188;-56.625
42130;-9.4;4.47;1.56;-83.875;-47.938;-12.063;-5.17;0.46;3.56;-189.312;64.688;-23.812
42180;-9.11;1.54;0.98;-33.625;-44.813;-12.813;-4;2.93;2.46;-136.062;11.938;-5.312
42229;-9.24;1.89;0.88;-35.688;-54.188;-20.562;-5.4;3.17;-1.44;29.25;-57.875;-19.187
42277;-9.53;3.39;0.56;-36.563;-48.063;-14.313;-10.54;0.02;-4.72;45.125;-77.375;8.875
42330;-8.71;3.88;2.92;-24.5;-29.125;-5.875;-15.67;-1.04;-10.18;-70.688;-24;15
42380;-10.66;1.3;2.18;-48.313;-15.688;6.187;-7.2;0.35;-3.48;76.25;-22.812;-16.687
42429;-12.23;3.48;0.12;-40.563;7;5.75;-8.15;2.59;5.32;21.375;-86.875;3.875
42478;-12.88;2.57;-0.71;-26.375;63.813;7.625;-18.74;-2.35;-5.02;-131.812;-87.563;21.875
42530;-11.9;1.27;-0.37;19.187;137.937;13.188;-5.79;1.33;5.46;136.75;-56.125;-36.375
42580;-13.08;0.84;3.04;23.937;131.687;60.5;-10.8;-5.64;2.96;9.438;-77.938;17.312
42628;-13.11;2.86;2.8;49.5;117.375;65.5;-9.93;-3.71;1.19;55.438;-50.25;-15.938
42678;-11.62;2.3;3.08;119.938;114.938;49.375;-9.95;2.09;0.08;30.562;-54.563;-6.125
42730;-8.44;2.1;2.07;126.125;104.625;40.063;-8.31;0.01;2.34;113.063;-39.313;-4.812
42780;-6;0.75;1.99;125.875;77.875;19.312;-9.41;-3.16;2.87;85.063;-44.938;3.188
42828;-4.8;-0.83;1.71;101.313;27.437;-2.625;-9.04;-0.47;2.37;18.062;-43.875;8.813
42878;-4.24;-2.42;-0.72;19.937;-27.687;-3.625;-10.25;-0.41;2.05;20.937;-46;10.188
42930;-5.15;0.7;-3.61;-46.625;-77.625;-23.625;-9.74;-0.01;0.11;27.75;-48.313;6.687
42980;-19.73;7.39;-10.19;-11.875;-126.75;-34.688;-10.63;-2.67;1.25;57.75;-26.875;14.125
43028;-10.22;2.23;-3.52;30.937;1.875;36.813;-11.5;-3.36;1.6;34.5;-9.25;12.938
43080;-9.35;2.66;-2.22;-35.125;-17.812;13.25;-12.19;-0.7;-2.52;-3.438;20.562;-0.437
43130;-4.6;-3.85;8.68;71.875;21.062;42.75;-12.74;3.12;-2.3;16.437;120.438;2.563
43179;-8.94;0.84;3.39;-64.563;-55.688;2.125;-11.43;-0.4;2.39;77.063;173.812;-14.938
43228;-11.1;5.05;2.78;-6.25;-81.75;-2.188;-15.11;-2.84;5.06;40.938;123.125;-77.938
43280;-9.19;-0.27;0.76;-27.437;-81.313;-4.562;-12.06;-0.32;2.96;-111.688;129.437;-61.188
43330;-9.2;1.02;1.61;-132.437;-70.625;2.625;-10.6;-1.84;2.92;-148.562;131.25;-53.25
43379;-8.91;3.84;1.73;-136.937;-55.063;-6.875;-6.98;-0.57;2.58;-153.875;104.188;-50.75
43428;-9.07;3.41;1.02;-54.313;-49.625;-12.813;-4.65;1.48;3.15;-173.75;62.875;-13.688
43480;-9.05;0.39;1.02;-32.063;-50.25;-18.437;-3.76;3.75;0.62;-83.875;5.437;-0.625
43530;-9.27;2.41;1.59;-54.938;-52.875;-24.5;-7.07;0.47;-3.76;74.875;-48.063;-12.875
43579;-9.68;4.5;0.55;-38.563;-37.688;-8.875;-11.68;-0.73;-5.76;7.187;-79.813;6.75
43628;-9.18;4.1;2.61;-36.5;-19;4.312;-14.39;-1.85;-8.34;-17.687;-61.188;9.813
43680;-11.34;2.11;0.55;-27.812;-0.062;6.875;-6.47;1.95;-0.07;15.188;-44.625;-6.5
43730;-12.89;2.79;-1.18;-22.5;30.312;5.562;-14.94;-2.27;2.01;8.125;-130.812;-1.937
43779;-12.66;1.58;-1.06;8.625;123.438;14;-9.12;3.73;1.63;6.312;-31.937;-26.437
43827;-11.92;1.62;4.18;23;155.25;49.563;-6.37;-0.81;9.09;92.75;-65.375;-1
43880;-13.6;2.87;2.6;40.813;114;69.75;-10.88;-6.05;0.85;-2.75;-58.625;0.687
43930;-10.58;2.55;2.84;107.688;121;53.563;-9.74;2.64;1.02;49;-55.063;-2.438
43978;-9.37;1.64;2.4;148.687;102.313;40.813;-9.09;1.89;-0.2;83.188;-42.938;-14.375
44028;-6.14;0.81;1.89;132.25;88.25;29.312;-9.37;-2.08;3.28;124.438;-49.063;7.312
44080;-4.1;-0.27;2;110.375;41;-8.5;-9.05;-1.27;2.05;38.688;-49.313;5.187
44130;-4.42;-1.82;-0.07;41.938;-18.937;-13.875;-9.91;-0.25;1.76;5.062;-44.938;9.063
44178;-5.08;0.38;-3.62;-50.813;-72.688;-16.687;-9.17;0.19;-0.04;14.813;-52.563;9.313
44227;-18.07;5.74;-10.15;-24.375;-130.562;-37.5;-11.02;-1.61;0.78;51.813;-31.875;10.563
44280;-9.51;1.8;-4.09;33.063;2.125;35.875;-11.28;-3.34;1.84;35.625;-9.5;14.875
44330;-8.01;-2.21;-0.35;-23.937;-2.25;10.875;-12.69;-1.31;-2.06;8.625;18.687;0.187
44378;-11.05;3.24;-0.81;122.125;13.375;19.562;-13.91;1.82;-2.97;-3.313;98;4.187
44428;-8.89;-3.75;4.87;-98.25;-52.625;24.75;-12.13;0.25;1.25;53.5;179.25;0.812
44479;-11.18;6.03;2.81;-54.688;-75.313;1.75;-14.88;-2.04;4.83;57.125;126.688;-73.313
44530;-9.31;1.63;0.81;-18.187;-79.25;-10.125;-12.41;-0.89;3.19;-89.938;133.562;-62.375
44577;-8.7;-0.42;1.1;-123.813;-85.438;0.25;-10.85;-1.5;3.05;-150.375;136.125;-60.563
44629;-8.4;2.76;1.95;-121.75;-63.938;-23.5;-6.26;0.28;3.3;-165.75;109.125;-53.938
44680;-9.49;4.16;0.91;-62.188;-53.188;-19.125;-5.33;1.3;3.28;-179.625;73.063;-15.688
44729;-9.32;1.48;1.03;-15.875;-42.938;-15.188;-3.72;3.66;0.86;-86.188;9.5;-4.687
44777;-9.09;1.39;0.88;-44.063;-45.875;-14.375;-4.79;0.99;-2.36;99.063;-47.25;-26.75
44829;-9.4;3.53;0.89;-29.875;-36.375;-11.125;-12.63;-1.59;-4.93;6.375;-102.438;9.125
44880;-9.36;4.36;1.82;-30.062;-25.187;0.437;-14.23;-1.92;-8.18;4.625;-90.813;17.437
44929;-11.65;2.23;0.64;-25.125;-7.062;7.375;-8.34;2.36;-0.17;12.75;-67.688;-10.375
44977;-13.67;3.02;-1.27;-29;19.5;2.188;-17.75;-1.83;-2.33;-70.188;-127.938;23.375
45029;-12.8;1.64;-1.61;-8.938;115.5;10.813;-6.53;1.64;2.88;150.062;-42.188;-26.062
45079;-12.61;0.98;3.03;39.375;156.375;35.375;-8.94;-5.03;6.9;47;-98.25;16.937
45129;-14.37;3.63;2.73;6.937;124.188;60.625;-11.03;-5.24;0.92;-19.187;-52.375;-11.188
45178;-10.52;2.45;4;106;124.438;61.438;-9.51;2.95;0.28;35.813;-54.125;5.5
45229;-9.05;0.9;1.56;157.875;112.563;32.125;-9.23;1.21;0.82;100;-43.063;-14.25
45279;-6.47;1.17;1.47;116.125;90.188;34.5;-9.7;-3.09;3.37;89.563;-47.125;9.75
45328;-4.19;-0.48;1.51;105.875;50.5;1;-8.91;-0.67;1.91;28.625;-53.625;5.187
45378;-4.55;-2.45;0.07;63.938;-8.063;-15.188;-9.69;0.18;1.63;3.813;-46.5;14.625
45429;-6.23;1.28;-4.87;-49.688;-49.5;-9.688;-9.81;-0.28;1.29;13.938;-52.688;11.813
45479;-12.81;4.16;-7.51;-8.125;-89.625;-16.25;-10.68;-1.13;1.65;47.188;-30.562;8.063
45528;-11.49;3.89;-6.87;17.625;-48.563;3.375;-11.6;-0.94;1.2;57.625;-16;8.188
45577;-9.5;1.91;-2.82;38.125;-25.562;20.687;-10.97;-2.88;0.32;52.438;5.25;11.438
45629;-11.34;5.13;-5.39;-1.437;-73.375;23.625;-11.92;0.18;-2.93;-16.75;50.875;-1.375
45679;-11.06;-4.7;3.3;48;-49.875;15.5;-11.09;3.9;-3.13;48.438;179.375;11.75
45728;-9.41;5.53;3.3;-71.25;-61.375;5.937;-13.12;-2.49;6.25;106.938;132.937;-57.375
45778;-9.58;5.37;3.01;-30.625;-64.813;-0.625;-12.97;-0.93;3.18;-25.437;111.563;-74.063
45829;-9.76;-1.15;1.29;-21.937;-78.813;-10.563;-13.01;0.07;2.46;-111.938;125;-63.25
45879;-9.12;1.87;1.8;-132.375;-74.688;-1.437;-9.12;-1.57;2.38;-140.937;109.875;-66.938
45928;-8.85;3.23;2.12;-105;-61.75;-17.687;-6.07;0.44;3.52;-160.812;94.625;-41.625
45977;-9.07;3.18;0.91;-48.5;-58.813;-18.812;-4.77;2.03;2.79;-151.562;52.563;-5.687
46029;-9.31;1.09;1.48;-30.937;-54.188;-19.687;-4.73;2.66;0.14;-10.75;-17.125;-18.125
46079;-9.21;2.29;1.37;-31.062;-51.875;-17.75;-7.64;-0.97;-3.87;49.125;-66;-13.188
46128;-9.46;3.5;1.41;-37.5;-37.375;-5.437;-13.71;-2.19;-7.84;-40.5;-87.688;16.562
46178;-10.47;2.73;2.4;-36.688;-19.187;6.937;-11.43;-0.03;-5.65;31.812;-41.875;0.062
46229;-12.77;3.03;-0.07;-45.75;2.625;8.438;-7.74;4.59;2.52;-17.5;-69.25;-1.562
46278;-13.12;2.73;0.03;-37.125;47.313;10.125;-17.53;-0.87;-3.96;-104.313;-96.313;20.312
46327;-11.92;1.23;-1.03;9.313;122.063;12.938;-7.25;-0.46;4.26;118;-49.25;-30.437
46378;-12.1;1.77;3.76;19.437;144.062;54.063;-9.44;-4.32;4.06;33.375;-80.688;13.813
46429;-13.41;2.51;2.75;50.375;121.625;63;-10.27;-3.27;1.5;20.5;-59.125;-6.937
46478;-11.31;2.59;2.74;109.563;121.75;46.813;-9.99;1.7;0.15;46.188;-50.125;-1.187
46527;-8.58;2.09;1.74;124.188;110.188;42.5;-8.48;0.56;1.62;117.938;-37.813;-11.75
46578;-5.37;0.99;2;131.187;88.938;24.875;-9.54;-3.06;3.13;89;-51.688;6.562
46630;-4.15;-0.66;1.39;119;26.125;-7.875;-9.31;-0.69;1.94;22.937;-43.063;4.187
46678;-4.36;-2.43;-0.22;33.5;-31.937;-6.812;-10.17;0.19;2.64;19.437;-46.75;8.438
46727;-6.1;1.31;-4.17;-28.312;-74.75;-10.813;-10.06;-0.5;-0.22;28.312;-45.375;5.312
46780;-17.24;5.43;-8.55;-9.375;-105;-17.437;-11.19;-1.92;1.19;51.5;-27.875;13.5
46830;-10.07;1.74;-4.37;37.938;4.062;21;-10.78;-2.57;1.28;33.125;-7.125;11
46878;-9.42;-1.77;0.06;-26.562;-32.375;14.5;-12.72;-1.82;-1.38;17.375;21.75;-0.687
46927;-10.73;3.59;-0.3;26.812;-51.188;8.438;-12;1.66;-3.88;14.188;94.75;5.562
46980;-5.6;-1.69;5.93;-67.938;-39.438;14.875;-13.11;-1.78;1.89;58.688;162.25;-15.5
47029;-10.22;5.63;4.06;-28.625;-74.188;-2.625;-15.71;-2.9;5.35;9.438;122.625;-80.438
47078;-8.87;1.03;1.33;-18.312;-68.938;-10.313;-11.93;-0.95;2.83;-107.438;130.75;-58.75
47127;-9.72;-0.15;1.2;-119.313;-77.188;-0.062;-10.15;-2.34;2.87;-129.75;129.187;-54.813
47179;-8.91;3.63;2.13;-117.438;-56.063;-12.313;-6.61;-0.55;3.53;-167.812;102.688;-44.125
47229;-9.12;3.37;0.99;-51.688;-53.438;-12.438;-5.31;1.48;3.5;-186.437;57.563;-9.375
47278;-9.24;0.73;2.13;-30.187;-55.5;-20.812;-4.22;3.11;1.26;-52.125;-2.75;-13.125
47328;-9.49;0.92;0.37;-42.938;-53.25;-19.125;-5.94;0.07;-2.89;78.438;-49.938;-20.312
47380;-9.37;3.3;1.89;-39.938;-43.375;-8.5;-12.24;-1.24;-5.9;-26.812;-82.938;16.562
47429;-9.86;3.42;2.36;-37.188;-32.125;-5.875;-15.36;-0.93;-9.02;-26.437;-21.875;4.562
47478;-11.44;1.79;1.7;-43.938;-4.875;0.062;-5.98;2.28;-2.09;8.063;-35.625;-9
47529;-12.36;3.6;-0.71;-36.063;16.5;7.625;-11.06;-0.91;3.76;41;-130.125;4.687
47580;-12.22;1.24;-0.09;-13.313;107.125;21.562;-13.01;-0.64;-1.43;30.375;-48.125;-18.312
47629;-11.16;1.36;2.51;18.937;156.25;37;-6.63;0.15;7.08;66.813;-63;-3.25
47678;-14.11;1.2;2.37;29.562;120.188;80.313;-11.19;-4.98;2.12;-36.375;-68.75;11.688
47729;-11.92;1.57;2.96;73;129.25;68.125;-9.66;1.06;0.94;50.563;-56.875;-4.875
47780;-9.76;2.9;2.71;113.5;119.75;53.063;-9.67;0.97;-0.52;62.875;-46.813;-11.313
47828;-7.38;1.72;2.4;148.812;90.25;50.063;-9.58;-1.09;2.44;112.375;-48.625;-0.687
47878;-5.19;0.17;1.98;138.125;56.375;3.5;-9.01;-2.16;3.03;60.688;-45.563;0.187
47929;-4.22;-1.3;1.38;75.438;-6.687;-9.688;-9.18;-0.18;2.3;21.75;-43.375;6.375
47979;-4.1;-1.03;-1.99;1;-51.625;-5.937;-9.64;0.57;1.83;31.25;-53.313;8.875
48028;-12.87;3.05;-7.81;-19.562;-89.813;-28.25;-9.64;-0.62;0;49.375;-42.938;9
48077;-16.07;4.48;-8.7;65.188;-39.313;1.062;-11.87;-3.39;1.69;55.438;-21.875;15.5
48129;-7.07;-0.1;-1.93;26.187;16.625;28.062;-11.64;-1.59;0.11;45.625;4.312;-0.375
48180;-10.93;5.43;-5.07;-44.438;-72.125;16.812;-12.68;-0.74;-2.55;24;43.563;-4.437
48228;-12.27;-3.26;1.25;2.188;-71.188;37.5;-11.29;2.73;-2.38;48.375;159.5;2.125
48277;-6.88;2.89;5.5;-44.563;-61;-0.75;-11.81;-2.62;5.54;83.813;140;-58.875
48329;-9.15;5.53;3.74;-34.438;-70.188;-1.562;-13.57;-0.88;3.46;-27.875;118;-70.563
48379;-8.68;-0.66;1;-29.312;-77.688;-7.187;-13.11;-0.48;2.89;-99.938;120.188;-68.563
48429;-8.99;2.1;1.75;-139.312;-67.438;-1.812;-9.09;-1.72;2.98;-143.25;119.625;-64.375
48478;-8.86;3.55;1.71;-112.563;-52.375;-12.5;-6.23;0;3.65;-166.375;84.188;-41.938
48530;-8.88;3.34;1.32;-44;-50.875;-14;-4.46;2.26;2.79;-155.562;49.25;-5.687
48579;-9.3;1.09;1.59;-21.062;-54.188;-19.562;-4.88;3.01;0.2;-37.938;-11.063;-12.688
48629;-9.63;1.43;0.36;-36.375;-48.188;-12.313;-7.43;-0.29;-3.68;53.625;-55.063;-9.563
48679;-8.77;3.7;2.03;-47.75;-30.937;-2.063;-13.9;-2.06;-7.28;-43.25;-72.875;27.625
48730;-10.22;2.51;2.73;-41.938;-16.5;7.125;-11.33;-0.7;-5.32;24.812;-37.25;3.313
48779;-11.03;2.09;1;-41.063;0.437;-0.25;-5.52;2.61;1.46;0.062;-51.375;-13.563
48828;-11.92;3.12;-0.24;-22.062;30.25;2.563;-12.82;-1.67;1.07;-12.063;-130.062;12.188
48879;-12.38;1.29;-1.67;14.125;118.563;3.813;-9.69;1.13;1.76;56.25;-48.75;-24.5
48930;-11.74;3.38;3.97;3.875;144.437;48.438;-7.19;-0.03;6.66;50.625;-64;4.937
48979;-13.42;2.85;2.19;69.188;114.75;62.375;-10.48;-4.54;2.14;-11.875;-58.125;2.438
49028;-10.57;1.52;2.51;101.313;120.75;51.875;-9.47;1.35;0.68;61.625;-52.75;-1.125
49079;-9.54;1.78;2.18;124.188;110.188;41.375;-9.42;0.93;0.53;70.063;-39.188;-10.625
49130;-6.77;1.24;2.37;141.5;92;22.625;-9.46;-2.3;2.64;110.875;-48.625;3.875
49179;-5.18;0.38;1.53;113.625;48.438;-7.687;-9.01;-1.9;2.98;46.125;-46.188;4.687
49228;-4.84;-1.51;0.74;49.625;-12.688;-10.563;-9.28;0.23;2.02;16.875;-46.375;10.25
49279;-4.17;-1.3;-2.18;-41.813;-56;-12.438;-9.99;-0.02;1.05;30.25;-51.375;12.313
49330;-14.35;3.89;-7.28;-9.625;-113.563;-27.062;-10.59;-1.31;0.8;37.75;-37;13.25
49379;-14.43;3.73;-8.02;25.937;-32.313;17.312;-11.39;-2.59;1.25;43.875;-17.437;15.375
49428;-8.58;-1.57;-1.42;8.813;0.062;15.75;-11.57;-2.51;0.04;30.312;11.688;6.187
49479;-13.06;6.11;-6.44;82.063;-36.938;17.5;-11.87;0.63;-2.71;4.562;50;-3
49530;-9.42;-3.65;3.11;-98.563;-53.125;32.625;-11.29;1.79;-1.93;33.875;170.687;3.25
49579;-10.55;6.04;4.11;-28.562;-64.625;1.25;-15.1;-1.11;5.45;65.438;133.812;-73.5
49628;-9.97;2.66;2.38;4.125;-66.938;-11.188;-13.01;-0.05;3.02;-55.875;125;-75.875
49679;-9.57;-0.42;0.93;-105.313;-76.813;1.687;-11.09;-2.25;2.36;-93.75;126.5;-74.25
49729;-9.2;2.96;1.46;-151.625;-61.813;-4.937;-7.68;-0.9;2.99;-159.437;102.688;-66
49778;-9.16;3.87;1.24;-85.125;-53.188;-14.375;-4.73;0.27;3.94;-198.125;67.438;-22.437
49829;-8.97;2.6;0.99;-24.312;-53.25;-17.125;-4.81;3.14;2.32;-141.187;7.5;-2.688
49880;-8.83;1.82;1.05;-37;-56.875;-21.937;-5.36;1.91;-0.8;20.937;-49.563;-24.375
49929;-8.99;1.68;1.42;-23.062;-58.063;-23.812;-10.78;-0.03;-4.05;35.5;-66.688;-3.438
49979;-9.33;3.76;1.38;-34.375;-39.125;-16.937;-14.78;-3.24;-9.63;-69.5;-11;18
50029;-10.34;1.68;3.03;-38.063;-24.687;0.312;-8.32;0.87;-3.19;58.938;-23.937;2.25
50080;-12.62;3.55;0.49;-40;-0.687;5.5;-6.87;2.42;3.06;3.625;-74.25;-1
50129;-12.86;2.73;-0.45;-22.5;39.813;10.438;-15.55;-3.76;-2.12;-53.313;-112.75;2.688
50179;-11.75;-0.22;-1.53;17;120.563;13.188;-10.65;-1.17;0.75;120.313;-77.063;-32
50229;-11.04;1.76;2.96;7.625;154.875;42.75;-8.47;-0.51;3.04;-8.375;-55.25;12.063
50280;-14.13;2.83;2.63;37.5;118.813;64.5;-9.44;-4;3.07;67.875;-54.625;-8.875
50329;-11.55;3.68;3.19;87.188;124.125;54.125;-9.89;-0.22;1.23;27.187;-62.375;3.125
50379;-10.48;2.57;1.93;145.375;112.875;47.25;-9.28;0.32;-0.47;66.938;-39.313;-8.5
50429;-6.68;1.95;1.79;144.25;97.563;28.437;-9.38;-1.93;2.72;96.063;-50.5;0.937
50480;-5.6;-1.49;0.63;107.375;47;0.187;-9.52;-0.77;2.13;47.375;-42.313;3.563
50529;-4.82;-1.42;0.54;28.875;-1.812;-0.812;-8.94;-0.21;2.81;40.938;-44.125;5.125
50579;-3.93;-0.85;-0.9;-26;-37.375;-8.875;-9.35;-0.96;1.89;27.937;-41.125;7.937
50629;-8.22;3.32;-4.68;-26.687;-88;-31.625;-10.18;-0.74;2.03;33.75;-48.25;13.063
50680;-14.78;6.1;-9.17;35.5;-56.938;6.187;-10.82;-1.51;1.43;38.188;-31.437;18.562
50729;-9.77;-0.48;-2.94;36.313;-14.063;15.375;-10.34;-2.14;2.01;51.938;-13.875;13.813
50779;-10.06;1.38;-3.9;17.937;-44.5;11.313;-11.42;-2.05;-0.32;8.75;1.062;8.438
50829;-0.72;-4.75;7.57;-40.063;-13.563;55.875;-11.75;2.12;-2.45;3.875;67.625;-1.312
50879;-12.9;6.8;3.86;-61.313;-55.313;-0.125;-11.17;0.29;0.65;23.062;154.75;6.187
50929;-8.94;1.69;2.84;2.438;-76.063;-3.5;-13.5;-0.53;4.67;67.938;132.937;-53.563
50979;-9.08;1.14;0.91;-27.687;-75.5;-1.875;-12.11;-1.17;3.64;-47.813;121.25;-68
51029;-9.66;-0.12;0.94;-105.25;-74.063;0.437;-11.61;-1.87;3.46;-109.063;135.187;-61.688
51079;-8.72;2.79;1.98;-123.438;-58.688;-5.937;-8.43;-1.85;2.77;-140.437;117.875;-60.875
51129;-9.13;2.78;1.64;-75.813;-52.938;-13.563;-6.33;0.29;3.5;-183.312;89.625;-25.437
51179;-9.03;2.33;1.51;-54.75;-55;-17.875;-4.55;2.99;1.17;-121.188;39.563;-8.813
51229;-9.11;1.69;1.18;-50.625;-49;-14.688;-5.08;1.66;-0.72;26.562;-18.125;-14.313
51279;-8.76;3.12;1.75;-47.188;-39.875;-12.125;-7.89;-1.73;-3.32;23;-47.813;-1.25
51329;-9.47;2.57;2.21;-48.938;-38.625;-8.438;-14.29;-4.06;-8.99;-48.125;-70.313;-1.437
51379;-10.82;2.56;1.69;-36.438;-8.875;-1.25;-10.6;0.71;-4.52;-22.875;-22.75;12.375
51429;-11.26;3.52;0.45;-39.313;3.375;2.813;-7.66;4.9;4.08;-22.687;-55.563;-14.063
51479;-13.11;0.93;-1.05;-8.75;52.313;13.375;-17.55;-1.15;-4.22;-16.5;-147.437;10.313
51529;-11.52;1.81;-0.25;-11.5;143.562;17.437;-7.09;-1.53;3.83;97.5;-44.5;-26.437
51578;-11.1;2.16;3.8;8.688;130.75;72.188;-9.63;-4.83;3.17;27.25;-75.75;6.812
51630;-13.66;2.35;2.79;80.563;107.938;72.313;-10;-2.2;2.39;15.5;-61.188;-8
51679;-11.52;1.9;2.23;130.562;118.125;52.188;-9.86;1.83;0.31;31.187;-54.375;-0.125
51729;-9.01;2.19;2.01;125.875;105.75;58.313;-8.82;-0.17;2.65;129.187;-38.625;-14.188
51778;-6.4;0.91;2.12;145.562;82.875;24.312;-9.43;-2.86;2.71;113.375;-52.188;-1.062
51830;-5.04;-0.77;1.65;130;32.188;-1.75;-9.14;-0.48;2.55;54.938;-46.063;1.75
51879;-4.32;-1.96;-0.19;45;-11.313;-1.625;-9.63;-0.22;1.64;44;-47.625;6.062
51929;-5.24;-0.03;-3.9;-10.625;-37.875;-25.375;-9.46;-0.58;1.11;40.688;-50.688;11
51978;-14.23;4.26;-6.52;-0.812;-77.938;-14.938;-10.16;-1.7;1.43;36.938;-42.188;15.313
52030;-9.99;2.78;-5.66;5.75;-14.313;15;-11.03;-1.81;1.9;42.813;-23.125;16.25
52079;-11.81;-0.59;-2.11;53.25;-25.875;4.125;-13.16;-3.07;1.57;35.313;-9.813;12.75
52129;-12.65;5.15;-5.97;58.813;-38.813;18.062;-13.53;0.42;-1.57;14.75;38.125;0.25
52178;-6.37;-3.42;1.6;-67.125;-47.063;31.25;-11.17;3.46;-2.63;23.687;119.813;1.687
52229;-11.1;7.79;4.05;-97.313;-73;19.75;-13.04;-1.86;5.76;98.438;142.25;-42.188
52279;-9.18;4.45;2.75;25.375;-71.375;-10.125;-13.38;-1.1;3.84;-21.875;120.063;-62.375
52329;-9.14;-0.4;0.58;-40.688;-78.75;-2.625;-13.03;-0.54;2.98;-91.375;123.75;-63.563
52379;-9.33;1.4;1.25;-149.125;-77.625;3;-9.61;-1.56;2.84;-131.062;120;-63.75
52429;-9.1;3.82;1.88;-114.438;-60.5;-11.313;-7.42;-1.11;3.18;-179.625;89.25;-40.313
52479;-9.36;3.21;1.24;-49.875;-56.688;-16.875;-5.85;1.84;3.01;-172.687;51.375;-4.625
52529;-8.91;1.17;1.46;-53.75;-59.375;-21.812;-4.01;3.03;0.75;-2.063;11.375;-23
52578;-9.42;2.32;0.45;-45.313;-50.063;-20.937;-5.81;-0.43;-1.78;37.625;-42.375;-12.125
52629;-9.15;3.74;1.64;-21.5;-41.5;-13.188;-9.92;-1.61;-4.04;-49.75;-59.063;15.75
52679;-8.94;2.07;2.28;-23.875;-35.813;-4.687;-14.71;-0.58;-8.77;-30.25;-32.438;0.812
52728;-10.82;1.62;2.93;-61.063;-14.375;-1.75;-5.98;2.36;-2.28;-8.875;-24.375;-5.125
52778;-12.83;4.36;0.91;-48.438;-2.938;-5.312;-9.9;3.04;4.89;47.063;-119.75;9.625
52829;-14.16;1.58;-0.91;-18.562;62.125;8.938;-16.03;-0.79;-6.28;-73.25;-61;-11.375
52878;-11.14;0.64;0.01;6.25;158.562;9.188;-6.52;-0.77;5.78;92.438;-52.5;-25.375
52928;-12.66;2.99;3.91;-4.625;136.062;64.688;-9.85;-4.4;2.07;-7.437;-65.25;6.625
52978;-13.22;2.29;2.6;79.75;125.25;60.938;-9.3;-2.5;2.26;55.313;-60.625;-12.75
53029;-11.81;1.85;2.51;113.875;124.125;51;-10.03;0.91;0.11;13.688;-52.313;-7.187
53080;-9.46;2.84;2.39;131.5;106.688;42.063;-8.49;0.49;1.82;117.813;-44.5;-9.688
53128;-6.38;0.96;2.16;146.375;91.75;22.562;-9.76;-2.36;2.17;80.313;-41.875;-1.875
53180;-4.77;-0.74;0.82;102.313;40.063;6.125;-8.98;-1.36;2.62;38.75;-40.75;1.687
53229;-3.94;-1.74;-0.89;29.062;-20.125;3.438;-9.25;0.89;2.85;33.688;-44;4.937
53280;-5.56;-0.95;-3.74;-20.062;-56.938;-24.437;-10.12;-0.62;2.69;47.875;-52.375;10.563
53328;-13.25;4.06;-6.32;3.75;-91.75;-10.5;-10.12;-1.82;0.36;48.75;-37.375;11.375
53380;-11.05;3.91;-6.15;49.5;-12.75;10.375;-11.23;-2.23;2.57;58.75;-21.875;14.875
53429;-10.52;0.94;-2.78;53.938;-20.5;22.687;-12.48;-2.76;1.27;41.313;-11.688;11.125
53480;-12.66;3.5;-7.13;58.375;-56.063;20.312;-12.75;-0.51;-1.44;16.062;14.313;5.125
53528;-4.42;-5.72;3.2;-27.812;-60.75;46.813;-11.76;2.59;-2.59;20.062;106.563;-4.062
53579;-11.06;5.6;4.6;-102.438;-68.688;23.25;-12.2;-2.07;4.76;68.438;167.437;-19.375
53628;-10.24;4.25;2.29;-0.375;-77.5;-8.125;-13.58;-1.3;4.1;8.313;117.438;-67
53680;-9.03;0.01;0.71;-45.313;-81.5;-3.625;-13.15;-0.51;3.36;-105.813;120.25;-74
53729;-9.66;2.31;0.79;-125.813;-75.5;-1.062;-10.49;-1.52;3.47;-164.187;129.375;-63.625
53779;-9.06;3.26;1.57;-102.5;-64.563;-10.75;-7.02;0.59;3.06;-184.937;108.813;-41.688
53828;-9.2;2.21;0.68;-70.188;-57.938;-13.938;-4.88;2.39;2.91;-160.375;67.688;-7.812
53880;-9.02;2.09;1.17;-52.125;-52;-21.25;-3.74;2.34;1.38;-38.063;16.5;-12.063
53929;-9.71;2.57;1.52;-47.375;-48.813;-18.125;-6.18;-0.39;-2.11;56;-39.25;-10.5
53979;-8.97;3.21;1.23;-17.375;-43.688;-7.125;-12.65;-2;-7.28;-37.125;-72.438;13.563
54028;-9.81;3.14;2.16;-33;-32.75;1.125;-15.79;0.05;-9.48;-28.437;-28.687;-1.562
54079;-10.95;0.92;1.74;-48.438;-5.437;6.375;-4.15;3.65;0.85;3;-19.937;-15
54129;-11.8;3.21;-0.53;-48.188;21.312;2.75;-11.84;-0.6;2.8;46.25;-116.938;9.563
54178;-12.65;1.41;-0.07;-6.125;106.125;7;-11.63;0.19;-1.18;-18.625;-62.875;-14.063
54228;-10.86;2.45;2.99;12.625;156.125;23.687;-7.14;-0.58;7.56;81.375;-57.313;-12.75
54279;-14.56;2.37;2.84;29.5;118.188;72.375;-10.63;-5.08;1.95;-23;-70.938;15.063
54329;-11.84;2.92;3.28;91.375;125;55.375;-9.2;1.3;1.43;45.688;-56.125;-9
54378;-10.47;2.96;1.9;114.938;117.75;37.375;-9.74;1.19;-1.17;45.875;-41.563;-11.313
54429;-7.72;0.66;1.74;132.125;97.813;38.5;-9.22;-2.89;3.21;125.375;-53;2.5
54479;-5.8;0.51;1.34;120.75;74.875;8.75;-9.44;-2.53;2.02;46.75;-42.813;-0.062
54528;-4.73;-0.87;0.72;90.313;28.375;-7.312;-9.1;0.3;1.5;28.375;-46.75;9.313
54578;-3.23;-1.8;-1.35;-0.562;-16;-8.188;-9.54;-0.14;2.23;32.25;-46.063;10.688
54630;-5.43;2.54;-4.36;-39.938;-77.5;-24;-9.46;-1.42;1.42;34.438;-43.938;11.438
54679;-17.45;6.12;-8.67;26.937;-99.813;-21.812;-10.95;-1.19;1.3;48.313;-29.812;10.25
54729;-10.21;-0.06;-4.28;30.625;-12.75;21.125;-10.37;-2.19;2.08;51.063;-10.938;15.5
54778;-9.45;2.12;-4.47;4.812;-2.438;9.5;-12.01;-2.2;-0.46;19.25;-1.875;6.187
54830;-0.15;-3.24;12.71;28.312;13.438;58.438;-12.35;2.32;-2.03;14.625;78.25;-1.687
54879;-11.81;0.59;2.62;-91.25;-70.813;11.375;-10.46;0.76;0.5;46.625;171.625;-1.875
54929;-9.11;4.22;2.99;1.625;-77.5;-4.187;-14.45;-1.41;5.01;66.688;116.938;-75.438
54978;-9.07;0.72;1.83;7.5;-85.438;-5.937;-11.69;-0.18;2.77;-74.625;123.75;-63.813
55029;-9.77;-0.72;1.13;-124.125;-90.875;7.312;-11.84;-1.21;2.95;-108.188;125.625;-61.5
55078;-8.5;2.56;2.17;-137.562;-71.563;-4.562;-8.09;-0.96;3.08;-151.5;104.625;-54.375
55129;-8.97;3.44;1.49;-85.5;-58;-15.688;-6.03;0.75;3.49;-176.687;78.875;-16.187
55178;-8.89;2.46;1.31;-48.313;-54.875;-20.125;-4.97;2.5;2.18;-105.813;35.313;-11.375
55230;-9.54;1.7;0.89;-25.5;-51.625;-20.125;-4.99;0.45;-1.07;32.688;-19.562;-23.625
55278;-9.44;2.54;1.79;-35.875;-54.938;-11.188;-8.94;-0.98;-4.82;14;-70.563;-2.813
55329;-9.45;4.01;2.75;-36;-33.188;-5.625;-14.9;-2.89;-8.59;-44.438;-55.375;3.063
55378;-11.01;0.95;2.82;-35.813;-15.188;9.625;-8.5;-0.52;-3.57;-7.312;-7.5;-13.375
55429;-11.45;3.01;1.21;-51.25;11.5;9.313;-9.6;3.88;3.83;28.125;-105.063;-3.25
55478;-11.82;2.75;-0.81;-34.563;40.188;10.313;-18.86;-1.83;-6.85;-109.938;-98.688;21.125
55528;-11.6;-0.14;-1.79;8.75;151.625;4.5;-5.1;-0.14;5.06;72.063;-30.812;-25
55578;-12.09;3.08;4.08;-23.5;153.75;62.75;-9.81;-4.24;2.59;33.938;-65.75;9.75
55629;-13.77;3.64;3.06;48.438;126.188;69.938;-9.64;-1.68;3.35;25.5;-63.438;-3.25
55679;-11.19;1.55;2.7;123.125;125.375;58.188;-10.51;0.28;-1.65;11.688;-42.875;-9.625
55728;-9.81;1.71;1.73;114.25;104.063;46.375;-9.11;0.06;1.82;133.5;-37.188;-6.875
55778;-7.21;1.69;2.37;134.75;76.438;31.187;-9.58;-2.77;2.75;87.875;-40;-6.062
55829;-4.33;-0.95;1.74;116.313;31.312;-4;-9.09;-1.06;2.1;31.187;-32.313;2.625
55878;-4.26;-1.78;0.43;21.687;-21.625;-3.188;-9.17;0.3;2.7;39.688;-46.125;8.25
55928;-4.02;-0.25;-2.87;-50;-55.688;-22.312;-9.08;-1.17;1.7;30.5;-54.813;15.938
55979;-18.23;5.76;-10.32;24.875;-99.75;-29.75;-10.19;-2.15;0.66;33.875;-46.188;18.437
56029;-11.31;1.85;-6.94;37.313;14.688;26.25;-10.75;-1.96;2.6;45.438;-29.812;21.187
56078;-10.09;-1.53;-2.01;13.938;6.187;6.562;-12.51;-2.73;1.11;50.063;-16.125;13.313
56128;-13.99;5.65;-8.95;155.937;-25.25;6.312;-13.22;-0.74;-1.2;30.562;23.187;9.313
56179;-5.46;-5.18;4.11;-88.188;-69.688;35.25;-11.92;4.87;-2.96;25.937;107.5;-3.813
56228;-10.35;6.48;4.32;-121.75;-74.375;24.062;-11.65;-2.28;6.22;97.938;174.125;-19.75
56278;-9.23;6.29;3.19;15.25;-74.625;-9.438;-13.61;-1.26;3.63;19.5;119.625;-67.188
56329;-9.35;0.73;1.6;-36.313;-80.188;-0.312;-11.8;0.11;2.54;-89.813;118.5;-64.875
56380;-8.65;0.71;1.88;-134.75;-81.125;4.812;-8.84;-1.55;2.68;-117.313;119.75;-55.438
56429;-9.51;2.62;2.02;-129.812;-66.875;-17.812;-7.15;-0.47;3.42;-152.625;85.75;-53.563
56479;-9.06;3.73;1.61;-84.125;-65.313;-24.312;-5.72;0.84;2.73;-163.5;57.875;-18.125
56529;-9.33;2.55;0.81;-31;-53.375;-25.125;-4.87;1.62;0.96;-91.688;10.438;-20.625
56580;-9.33;1.72;0.17;-31.375;-50.813;-14.5;-6.49;1.01;-2.63;-22.125;-23.75;-14.188
56629;-8.79;3.53;1.69;-42.938;-36.688;-10.125;-11.22;-0.53;-5.61;4.437;-44.813;1.375
56679;-9.44;2.83;1.92;-33.813;-31.5;-3.625;-14.86;-1.61;-8.87;-30.562;-42.75;-2.063
56730;-11.67;0.7;2.37;-40.875;-14.313;-5.687;-5.67;2.22;-2.6;-27.062;-14.188;-6.187
56780;-12.95;4.11;0.23;-45.063;8.563;0.125;-9.33;3.01;5.99;2.063;-95.875;0.062
56829;-12.73;2.16;-0.5;1.437;83.375;10.938;-18.64;-2.91;-6.24;-61.688;-111.25;13.938
56879;-11.48;1.52;1.14;37.063;155.437;20.062;-5.54;-0.17;6.21;88.813;-21.875;-36.75
56930;-14.07;1.97;3.72;41.75;126;75.375;-10.82;-4.22;1.61;19.437;-91.688;17.687
56979;-13.79;2.43;2.85;98.625;121.875;63.875;-9.91;-2.8;1.27;63.688;-56.625;-11
57029;-11.5;1.19;2.71;112.813;133.937;42.5;-9.67;1.05;-0.85;33.25;-49.75;-1.375
57079;-8.45;2.24;2.28;118.313;113.5;41.938;-8.6;-0.01;2.37;113.813;-38.625;-7.937
57130;-4.91;-0.28;2.37;138.062;87.938;0.562;-9.16;-2.75;2.15;82.313;-42.75;3.25
57179;-4.53;-0.81;1.71;68.313;23.562;-13.25;-9.18;-1.07;2.1;33.813;-42.938;8.063
57229;-3.66;-1.94;0.33;-22.375;-40.438;-5.125;-9.26;-0.3;2.67;18.25;-44.688;11
57279;-6.56;2.03;-3.92;-54.5;-84.5;-30.312;-8.97;-0.37;0.99;13.938;-51;12.688
57329;-22.05;10.94;-13.31;66.313;-67.25;-5.75;-10.35;-1.83;1.62;32.438;-42.5;21.562
57379;-7.12;-1.07;-3.43;33.563;29.312;23.312;-10.43;-1.51;2.73;43.875;-21.312;17.437
57429;-10.08;-0.09;-3.32;39;0.937;9.813;-11.06;-1.61;-0.11;31.062;-12.188;9.75
57479;-1.91;-2.62;10.92;61.813;25;56.938;-13.62;-0.42;-1.67;26.75;48.375;1
57529;-12.27;1.69;3.36;-61.625;-47.688;-1.875;-11.12;2.41;-2.69;30.125;148.062;3.813
57579;-9.44;6.77;2.85;-70.688;-72.438;7.625;-13.78;-3.02;6.04;90.313;128.875;-64.813
57629;-9.27;4.05;1.78;24;-78.5;-9.625;-12.5;-0.94;3.45;-74.813;116.5;-71.25
57679;-9.5;-1.13;1.1;-65.813;-87.5;-3.688;-12.94;0.43;2.66;-123.563;119;-65.188
57729;-8.42;1.19;2.01;-147.375;-80.563;2.125;-8.17;-0.08;2.67;-128.875;110.25;-60.375
57779;-9.02;3.24;1.61;-106.313;-66.313;-20.125;-5.94;0.61;3.76;-165.437;85.75;-32.563
57829;-9.01;2.46;1.24;-63.938;-63.563;-21.937;-5.65;1.89;2.5;-145.312;51.938;0.5
57880;-9.51;2.45;0.89;-36.25;-61.938;-26.5;-4.8;1.77;0.3;-0.875;-4.687;-11.188
57929;-9.17;2.03;0.94;-27.875;-54.25;-16.5;-6.95;-1.36;-3.99;24.062;-41.938;-4.437
57978;-9.16;2.57;0.87;-24.562;-41.625;-8;-13.66;-1.94;-8.36;-34.313;-61.25;6.5
58029;-10.73;2.5;2.95;-53.938;-23.562;-1.062;-12.89;-1.2;-6.88;13.688;-17.125;3.875
58080;-11.49;2.67;0.86;-35.938;-2.25;9.188;-4.93;3.55;1.96;-7.125;-65.438;-10.75
58129;-12.4;2.45;-0.45;-38;23.125;9.625;-16.9;-1.22;-1.23;-78.125;-133.812;19.312
58178;-12.62;1.5;-0.66;-2.75;113.125;15.625;-8.49;0.4;2.2;95;-65.688;-35.25
58228;-10.42;1.36;3.25;28;157.625;32.063;-6.5;-0.78;6.19;55.125;-64.813;6.125
58280;-14.27;1.35;2.28;31.875;129.062;62.375;-10.42;-5.07;2.12;40.625;-62.438;-9
58329;-11.97;2.85;3.28;95.125;136.25;56.125;-9.8;1.3;0.88;25.812;-56.625;4
58378;-10.4;2.07;2.11;101.938;134.875;46;-9.03;0.27;0.23;51;-37.25;-12.125
58428;-7.18;1.75;2.44;117.375;105.625;39.938;-9.27;-1.92;2.87;104.063;-55.25;1.312
58480;-4.94;0.65;2.11;122.625;76.188;12;-8.97;-0.96;3.11;47.375;-46.688;5.687
58528;-3.82;-1.08;0.89;73.75;0.5;-0.437;-9.47;-0.12;2.37;31.687;-45.375;6.937
58578;-3.32;-0.78;-1.52;-5.187;-45.188;-0.75;-8.7;0.15;1.78;23.187;-48.438;10.625
58628;-11.12;2.49;-6.75;-18.875;-92.625;-19.187;-10.03;-0.77;1.72;33.063;-47.25;11.063
58680;-16.79;6.82;-8.03;88.625;-27.562;-1.312;-11.54;-2.66;2.78;42;-29.187;16.687
58728;-6.54;-2.93;-3.19;17.375;-14.063;37.75;-12.19;-1.75;0.88;54.625;-14.563;9.5
58778;-13.58;5.45;-8.01;-8.625;-38.375;-1.812;-12.23;-1.87;-1.91;20.125;15.25;4.062
58828;-10.18;-5.83;1.51;-37.625;-80.438;54;-12.16;1.73;-2.51;10.5;115.188;-1.062
58880;-7.17;6.19;5.77;-84.063;-65.375;8.688;-12.31;-1.56;5.7;66.875;171.875;-21.125
58928;-10.01;5.73;3.93;1.687;-83.25;-10.438;-14.02;-0.95;4.03;25.312;124.125;-76.188
58978;-8.26;-1.88;0.5;-22.375;-91.938;-11.125;-12.51;-1.65;3.47;-72.25;129.812;-76.938
59028;-9.55;1.67;1.54;-158.437;-83.063;-0.687;-9.79;-1.93;3.33;-148.25;138;-69
59080;-8.82;4.45;1.71;-130.687;-57.938;-17.687;-6.61;-0.78;3.61;-191.75;112.813;-45.5
59128;-9.38;3.65;0.41;-37.375;-52.313;-18.687;-4.84;1.84;3.28;-207.625;65.75;-12.063
59178;-9.23;1.17;0.56;-30.687;-53.313;-16.687;-3.54;3.84;1;-54.188;6.062;-15.188
59230;-9.08;1.94;1.51;-48.875;-46.688;-14.375;-5.25;1.06;-2.43;92.438;-55.813;-26.75
59280;-8.59;3.28;1.27;-34.563;-45.313;-14;-13.63;-1.55;-6.87;-3.813;-81.563;12.438
59328;-9.27;4.27;3.29;-40.5;-33.375;-4.625;-15.35;-1.61;-9.8;-58.813;-1.75;4.375
59378;-11.98;1.32;1.63;-36.188;-10.5;14.938;-4.51;2;-0.96;0.562;-39.875;-0.562
59430;-12.32;3.71;-0.97;-43.625;26.75;10.625;-13.91;-1.28;3.37;-6;-134.75;5.625
59480;-13.5;0.78;-0.29;-1.312;99.438;15;-11.16;-0.27;0.47;22.437;-43.688;-38.063
59528;-10.74;1.95;2.6;27.187;164.125;26.875;-4.75;2.73;8.13;59.438;-68.938;1.062
59579;-14.74;1.88;1.91;26.812;116.625;74.688;-12.55;-6.7;1.69;7;-70.563;13.063
59630;-10.66;3.02;3.6;93.375;124.375;67.313;-9.8;0.57;0.41;72.563;-54.5;-4.875
59680;-11.09;1.84;2.49;134.25;118.188;41;-9.22;0.8;-1.09;42.563;-37;-17.687
59728;-8.05;0.86;2.42;144.687;101.688;49.25;-8.87;-2.17;2.84;109.438;-52.125;5
59779;-4.29;-0.29;1.63;108.75;68.063;8.313;-9.37;-2.25;1.78;31.062;-43.5;2.813
59830;-3.68;-1.69;1.05;73.438;5.375;-9.313;-9.11;0.54;2.44;26.5;-52.688;11.813
59880;-3.64;-2.15;-1.02;-26.25;-34.375;-10.25;-8.76;0.34;2.52;26.187;-53.25;11.125
59929;-9.07;3.76;-5.44;-61.563;-79.75;-38.125;-10.07;-1.35;1.16;44.625;-53.063;14.625
59979;-16.93;6.86;-9.36;58.688;-62.188;-14.375;-11.09;-2.53;1.33;51.875;-42.875;17.687
60030;-9.36;-2.79;-2.3;11.813;-4.75;32;-13.2;-2.74;0.87;46.25;-13.875;12.563
60080;-11.54;6.3;-4.52;-20.437;-23.687;11.5;-11.96;-1.27;-1.44;36.188;29;-1.437
60129;-5.75;-3.55;7.38;35.75;4.125;59.5;-11.97;2.97;-2.35;14.5;128.437;0.437
60179;-9.61;3.28;3.24;-17.187;-65.563;-0.562;-10.7;-0.66;5.22;97.313;178.562;-17.625
60230;-9.98;5.34;2.99;-19.875;-60.875;3.188;-14;-2.06;4.13;44.375;129.687;-80.625
60279;-10.07;0.14;0.99;-6;-78.875;-5;-13.34;-2.04;3.34;-105.188;127.625;-78.25
60328;-10.03;0.38;1.4;-136.25;-88.438;1.062;-10.27;-2.2;2.86;-163.25;123;-67.688
60380;-8.5;3.38;2.42;-152.812;-67.438;-7.75;-6.02;-0.14;3.33;-176.25;85;-48.75
60430;-9.19;3.28;1.58;-87;-57;-20.937;-4.95;2.14;3.16;-188.25;44.313;-12.438
60479;-9.14;2.01;1.36;-51;-54.25;-23.437;-4.27;1.53;1.73;-64.5;-3.313;-17.812
60528;-9.71;2.45;-0.01;-35.313;-58.938;-20.812;-5.03;0.97;-1.75;37.375;-57.375;-22.5
60580;-8.58;3.65;0.43;-26.687;-38.688;-6.875;-14.09;-0.57;-7.52;-10.25;-83.375;17.812
60630;-9.34;3.92;2.96;-32.625;-33.813;-5;-16.37;0.64;-8.64;5.875;-12.063;0.75
60679;-10.72;1.3;2.49;-28.937;-21.125;1.312;-4.2;3.61;-0.1;25.812;-42.063;-16.625
60728;-11.5;3.8;-0.05;-33.5;5.687;2;-13.73;-1.73;2.76;-66.625;-132.75;27.5
60780;-13.34;-0.22;-1.53;6.437;94.688;17.062;-7.2;-0.21;3.17;99.313;-63.563;-39.625
60830;-10.06;1.79;2.52;5.125;162.5;12.688;-6.75;-0.26;5.83;56.438;-75.25;4.937
60879;-14.85;4.02;3.19;-11.563;123.438;70;-10.85;-4.78;2;-3.813;-58.688;1.562
60927;-12.15;2.7;3.62;116;114.188;58.563;-9.57;0.19;1.36;55.188;-52.313;-5.625
60980;-11.36;2.04;2.28;147.375;118;36.438;-9.12;0.6;-0.06;67.063;-35.313;-11.625
61030;-8.41;2.02;1.65;102.75;107.688;38.313;-9.43;-2.42;2.76;90.563;-50.75;2.063
61079;-5.61;0.6;1.49;107.688;79.063;19.625;-9.07;-1.84;1.71;46.563;-43.438;-2.625
61129;-4.82;-1.27;1;90.563;32.938;-2.063;-9.22;-0.32;2.09;37.5;-45.375;6.375
61180;-3.93;-1.96;-0.9;-5.25;-24.562;-3.563;-9.51;-0.35;2.89;25.625;-47.188;11.188
61230;-6.12;2.61;-3.86;-37.688;-66.688;-31.25;-9.17;-0.4;1.69;26.875;-44.625;10.875
61279;-19.44;7.62;-10.16;36.563;-111.875;-30.687;-10.17;-1.48;2.25;38.25;-47.25;18.5
61329;-8.09;2.19;-3.8;6.187;-4.5;44.438;-10.87;-2.99;2.14;34.313;-33.188;23.625
61380;-9.09;-2.32;-1.27;50.875;-25.187;14.063;-12.09;0.18;-1.56;15.75;-6.625;9.313
61430;-12.43;0.72;-3.29;92.875;-11.25;20.25;-12.77;1.3;-2.2;44.375;65.5;0.062
61478;-6.7;-0.66;5.35;-63.313;-48.188;30.875;-10.74;1.33;-0.77;36.625;183.625;6.312
61529;-10.48;5.18;3.31;-45.75;-65;10.5;-15.17;-1.78;4.92;73.5;136.5;-66.563
61580;-8.98;-0.59;0.57;25.687;-71.188;-13;-12.26;-1.36;3.79;-67.375;128.687;-63.438
61630;-9.45;1.2;1.59;-115.938;-77.813;6.312;-12.18;0.51;2.92;-141.562;137.312;-56.563
61678;-9.12;1.83;2.06;-128.625;-67.875;-8.688;-8.05;-2.3;3.11;-139.75;124.313;-52.938
61728;-9.12;2.87;0.79;-104.375;-60.75;-14.5;-5.58;0.17;3.67;-184.562;87;-21
61780;-8.71;2.9;1.66;-79.375;-61;-19.437;-3.99;2.26;1.92;-112.063;35.938;-5.625
61830;-9.58;2.49;0.73;-51.563;-60.5;-28.562;-4.23;1.96;0.28;10.563;-23.125;-21.562
61878;-9.12;3.05;1.32;-39.375;-47.75;-17.875;-8.19;-0.83;-3.72;32.875;-71.313;-5.187
61930;-9.05;2.99;2.35;-31.437;-40;-12.688;-16;-2.56;-10.43;-59.625;-57.375;-0.812
61980;-11.2;2.1;1.92;-42;-19.875;-2.438;-9.04;0.41;-5.01;43.25;-19.812;-9.125
62029;-12.51;3.94;0.43;-38.688;1.437;4.5;-8.21;0.82;6.17;9.125;-76.313;-7.437
62078;-14.06;0.91;-0.78;-18.875;55.938;15.25;-18.25;-1.63;-5.89;-100.375;-102.25;11.188
62130;-11.19;1.14;0.38;-2.813;151.312;10.5;-5.97;1.83;7.02;83.5;-48.813;-26
62180;-13.8;2.45;3.82;-17.687;143.312;67.313;-10.89;-4.33;1.55;-9.688;-75.188;13.375
62229;-12.82;2.51;3.03;85.688;119.813;68;-9.88;-3.13;1.37;66.125;-59.938;-14.375
62277;-11.38;2.47;2.83;121.063;126;52.5;-9.87;1.18;-0.35;26.437;-53.938;-2.313
62330;-7.65;1.91;2.2;117.188;116.938;48.875;-8.43;-0.05;2.2;107.125;-37.313;-8.438
62380;-5.31;0.6;2.22;120.25;79.625;25.25;-9.52;-2.71;2.13;80.563;-48.938;-1.875
62429;-5.61;-0.05;1.83;90.375;32.813;3.688;-8.9;-0.82;2.08;28.187;-38.438;5.25
62477;-4.17;-2.06;-0.1;14.438;-23.5;-2.625;-9.18;0.03;2.5;24.312;-47.063;6.25
62529;-6.1;1.77;-3.99;-55.25;-52.938;-25.812;-8.37;-0.41;1.83;20.375;-48.625;10.438
62580;-17.71;8.48;-9.97;50.063;-82.125;-20.75;-10.58;-1.68;1.78;35.625;-45.938;14.063
62629;-10.24;2.66;-5.4;58.938;5.375;28.187;-10.25;-1.36;2.1;49.563;-22.125;10.125
62678;-10.76;1.1;-3.57;30.187;-7.25;8.875;-12.42;-2.06;-0.06;49.25;-4.687;3.5
62730;-9.57;0.86;-1.76;141.125;8.938;31.187;-13.51;-0.07;-1.25;24.75;55;5
62779;-9.95;-2.2;3.52;-65.125;-60;5.75;-11.15;3.77;-3.65;28.562;151.312;12.188
62828;-9.94;6.69;4.26;-102.75;-78.188;15.75;-13.64;-2.61;5.61;116;140.75;-43.938
62878;-8.84;1.73;1.85;35;-83.75;-12.625;-13.23;-2.37;3.89;-31.687;123.875;-66.75
62930;-8.99;-0.68;0.83;-73.688;-90.75;-3;-12.84;-0.08;2.7;-110.625;134;-64.313
62980;-8.86;2.3;1.62;-156.375;-81.938;-13.875;-9.04;-1.85;2.14;-142.25;122.188;-65.313
63028;-8.74;4.26;1.52;-114.813;-71.25;-22.312;-6.62;-1.3;3.69;-195.625;91.438;-38.438
63080;-9.72;2.12;-0.41;-54.688;-58;-20.812;-4.66;2.69;2.44;-165.312;51.75;-5.25
63130;-9.47;2.9;0.58;-46.625;-37.25;-11.625;-3.87;4.03;0.51;-13.438;-5;-12.875
63179;-9.19;2.24;1.18;-51.938;-35.188;-5.812;-7.07;0.4;-3.51;99.438;-65.313;-14.25
63228;-8.52;3.65;2.18;-18.187;-34.688;-8.688;-12.99;-2.22;-5.76;-41.875;-75.938;13.688
63280;-10.08;2.23;1.77;-18.437;-31.437;3.313;-10.83;-1.26;-5.18;11.438;-49.563;-2.875
63329;-11.3;2.29;1.21;-33.25;-5.5;2.875;-9.36;2.21;1.04;-24;-77.188;-7.437
63379;-13.04;2.58;-1.08;-37.25;28.125;6.687;-16.23;-1.33;-2.75;-58.5;-111.375;7.312
63427;-12.63;0.6;-1.78;6.375;137.625;6.5;-7.91;0.21;2.27;111.313;-50.375;-30.937
63479;-12.09;1.68;3.58;7.875;161.437;40.813;-8.58;-4.49;4.97;46;-68.563;7.062
63529;-13.56;3.02;2.63;56.125;118.125;63.125;-10.04;-4.19;2.23;10.438;-68;-0.312
63579;-10.73;2.67;3.11;96.375;127.75;56.375;-10.13;2.37;-0.71;21.125;-63.125;-3.688
63627;-9.66;2.58;2.17;120.438;108.75;47.375;-8.98;1.06;0.11;73.438;-34.688;-14
63679;-7.4;1.65;1.99;109.125;80.25;34.75;-9.81;-3;2.99;111.563;-48.938;1.375
63729;-4.91;0.16;1.78;113.688;27.562;-3.75;-8.64;-1.11;2.64;31.5;-38.875;-0.5
63779;-4.52;-1.85;0.72;36.063;-20.875;-10.563;-9.15;-0.1;2.31;24;-43.938;6.937
63827;-4.09;-1.39;-1.83;-45.125;-55.75;-9.063;-8.53;-0.05;3.31;20.312;-50.75;13.063
63879;-15.52;5.58;-10.87;23.75;-97.313;-24.937;-10.03;-1.5;0.85;27.5;-55.875;15.5
63929;-14.15;3.42;-7.07;106.125;16.25;17.437;-11.4;-2.5;2.95;50.438;-37.75;17.125
63978;-7.08;-1.45;-1.59;58.063;7.187;14.438;-13.3;-1.87;1.13;55;-14.563;5.375
64027;-11.65;4.34;-6.62;57.313;-5.5;16.875;-12.79;-1.11;-1.12;48.563;9.563;-1.125
64079;-9.96;-4.7;1.11;-72.625;-42.063;42.5;-12.3;3.17;-1.98;21;91.063;-4.25
64129;-8.44;3.24;4;-108.25;-77.125;22.312;-12.02;-1.69;3.78;68.063;166.812;-13.875
64178;-9.85;6.92;3.28;-13.938;-67.813;-6.687;-14.04;-2.02;4.48;47.438;121.25;-69.563
64227;-9.53;0.79;0.67;-41.563;-78.438;-4.125;-12.01;-0.71;3.37;-106.625;123.563;-62.813
64279;-9.97;0.98;1.33;-114.063;-88.438;0.687;-10.01;-1.15;2.77;-112.375;133.562;-58.688
64330;-9;2.59;1.95;-131.562;-72.375;-14.75;-7.79;-0.64;2.89;-152.812;96.438;-50.063
64378;-8.97;3.07;1.6;-90.063;-69.5;-24.875;-5.3;0.62;3.27;-174.687;74.688;-19.937
64429;-8.95;2.23;1.34;-58.688;-62.813;-28.375;-3.53;2.18;1.5;-60.438;32.75;-10
64480;-9.5;3.03;0.59;-39.063;-54.875;-19;-4.2;1.1;-0.84;6.125;-25.312;-10
64529;-8.85;3.05;1.17;-24.125;-46.188;-11.813;-9.45;-0.75;-4.22;-6.125;-70.875;8.563
64577;-9.26;3.25;2.5;-26.062;-25.437;-2.688;-15.78;-1.45;-9.26;-22.375;-62.063;7.125
64630;-11.12;1.94;2.33;-43.125;-15.313;2.875;-7.31;2.12;-2.58;16.437;-24.875;-7.75
64679;-12.68;3.81;-0.86;-17.187;10.75;9.375;-10.22;-2.1;5.32;28.125;-98.688;10.5
64729;-14.48;2.26;-0.4;3.813;105.75;20.875;-12.31;0.73;-2.65;-30.937;-47.563;-8.813
64777;-11.61;-0.03;0.12;33.688;169;23.562;-6.39;0.43;6.34;127.813;-68.25;-33.938
64830;-14.48;2.62;3.24;5.625;137.5;68.688;-11.14;-4.41;1.53;-43.813;-66.625;17.687
64879;-11.84;2.33;3.44;97.875;139.562;58.5;-10.42;-0.66;-0.02;71.875;-49;-17.75
64929;-10.55;2.76;2.93;113.875;130.437;40.438;-9.84;1.39;-0.85;51.438;-44.438;-10.688
64977;-7.53;1.8;2.3;125.563;103.313;36.5;-8.53;-0.34;1.62;127.75;-33.5;-11.438
65030;-3.93;0.27;2.08;106.438;55.563;2.188;-8.9;-3.15;2.39;72.25;-40.125;-0.375
65080;-4.73;-1.07;1.51;52.563;-22.687;3.563;-8.69;-0.64;2.57;16.75;-45.875;11.438
65128;-5.22;-1.78;-0.15;-10.75;-61.313;6.062;-8.96;0;3;-0.062;-50;14.938
65177;-8.56;2.34;-5.54;9.875;-71.438;-30.875;-9.12;-0.16;1.18;3.313;-59.875;15
65230;-15.71;5.76;-9.47;60.813;-20.125;-7.187;-10.84;-2.13;2.46;42.625;-40;14.875
65280;-9.01;0.87;-4.02;24.25;6.375;28.375;-10.97;-0.34;2.32;55.625;-21.812;11.063
65328;-12.52;-0.93;-2.29;-5.687;-15.438;16.437;-12.79;-2.6;0.33;44.313;-9.688;11.75
65377;-10.87;5.19;-4.34;81;15.938;41.938;-13.34;-2.01;-1.63;-8;58.063;-1.187
65430;-9.71;-2.34;2.27;-61.563;-47.938;0.25;-11.26;4.8;-3.6;6.687;150.875;8.313
65480;-9.13;6.97;3.17;-91.5;-69.125;9;-12.14;-2.61;6.03;121.938;136.125;-45
65528;-8.71;4.51;2.39;13.5;-82.188;-9.875;-13.36;-1.84;4.22;-48;122.375;-62.563
65577;-9.09;-0.29;0.75;-66.625;-87.25;0.312;-13.46;0.23;3.15;-104.625;128.687;-67.188
65630;-8.64;1.92;1.73;-152.125;-77.875;-5;-9.03;-2.15;2.33;-144.25;121.625;-66.75
65679;-8.66;4.3;1.62;-69;-75.313;-21.125;-6.54;-1.35;3.48;-217.25;87.75;-26.375
65728;-9.29;1.33;0.47;-41.563;-69.688;-25.812;-4.54;2;3.25;-190.062;48.313;-0.812
65778;-9.8;2.63;0;-60.125;-42.875;-9.938;-3.53;3.65;0.86;3.75;-10.063;-18.875
65830;-8.8;2.39;1.28;-56.438;-41.438;-7.687;-6.62;-0.54;-2.46;103.125;-57.5;-23.25
65879;-8.53;3.45;1.88;-23.937;-39.625;-9.125;-13.67;-2.73;-7.63;-29.375;-73.25;13
65928;-10.07;2.38;3.01;-29.062;-32.25;-4.187;-14.71;0.05;-8.32;-27.312;-17.187;1.812
65979;-11.38;2.49;0.82;-44;-2.313;12.438;-4.76;3.8;1.51;-11.5;-58.063;-11.313
66030;-13.17;2.62;-1.52;-50.75;41.75;18;-19.02;-1.79;-2.16;2.813;-155.687;24.875
66079;-13.22;1.76;-0.55;-11.75;145.75;21.5;-6.51;0.57;1.64;50.813;-38.063;-34.188
66128;-11.11;1.74;2.85;18.062;160.812;48.625;-7.62;-2.46;6.73;93.438;-69.313;1.125
66180;-14.91;4.7;3.21;47.375;122.75;74.313;-9.4;-3.11;3.11;-14.375;-59.563;1
66230;-11.97;2.6;3.46;133.562;126.5;61;-9.65;1.44;0.03;38.25;-55.313;-5.875
66279;-9.71;2.22;2.51;125.625;121.438;43.125;-9.4;1.32;-0.38;85.625;-32.188;-14.188
66327;-5.92;0.25;1.88;118.75;82.25;31.437;-9.08;-1.24;2.86;112.688;-53.438;-3.063
66380;-4.15;-0.58;2;92;38.813;-3.688;-8.76;-1.06;2.86;60;-38.563;0.312
66430;-3.65;-1.71;0.44;42.875;-17.875;-19.187;-9.65;-1.04;2.3;22.062;-43.375;6.625
66478;-5.38;1.85;-4.5;12.375;-53.438;-38.313;-8.5;-0.61;0.84;12.25;-52.75;8.25
66528;-13.67;3.92;-7.49;41.563;-69.375;-32.813;-10.25;-1.23;1.7;40.563;-50.875;15.125
66580;-10.82;0.87;-6.96;43.938;7.25;16.375;-11.3;-0.94;2.91;46.125;-33.688;12.625
66630;-7.63;0.08;-2.84;14.125;-34.313;31.562;-10.9;-1.73;0.61;59.813;-12.25;10.125
66678;-12.74;4.3;-6.24;37.063;-34.313;1.687;-12.03;-2.72;-1.24;11.5;13.313;5.187
66728;-7.19;-4.48;0.66;-24.5;-34.313;48.5;-13.22;1.35;-2.01;0.125;106.938;2.563
66780;-9.18;4.39;2.63;-119.438;-61.625;17.25;-10.98;-2.05;4.9;43.938;168.187;-13.938
66830;-10.72;6.27;3.5;-8.188;-81;-13.313;-14.28;-1.46;3.97;-12;116.688;-70.688
66878;-9.19;1.11;1.36;-4.187;-98.938;-6;-12.59;0;3.02;-109.063;122.375;-55.438
66928;-9.3;-0.88;0.85;-116.375;-97.688;-1.937;-10.76;0.69;2.26;-108.688;135.875;-49
66980;-8.99;3.84;1.61;-141.437;-72.688;-20.062;-6.61;-1.08;3.59;-140.187;108.75;-45.313
67029;-9.15;3.93;0.5;-78.938;-65.375;-17.437;-4.39;0.31;2.74;-169.375;78.563;-3.5
67078;-9.21;2.7;0.51;-33.813;-56.438;-20;-4.28;2.21;1.03;-93.313;23.687;-5.875
67129;-8.88;1.39;1.29;-37.438;-54.063;-17.812;-5.34;0.09;-2.62;35.875;-34.563;-19.375
67180;-8.84;3.02;2.38;-32.063;-40.813;-9.5;-10.94;0.31;-5.62;45.25;-73.75;-5.312
67229;-9.57;4.02;2.14;-27.687;-34.188;-3.563;-16.4;-1.43;-9.53;-71.188;-23.25;14.438
67277;-11.36;1.76;2.32;-35.813;-13.938;10.938;-5.63;2.35;-1.91;23.187;-22.875;-6.687
67329;-12.63;3.03;-0.47;-44.625;21.875;11.188;-13.02;-0.92;4.22;47.313;-120.813;2.063
67380;-13.68;1.93;-0.46;-17.187;116.25;18.375;-11.47;-0.95;-0.69;-16;-48.938;-15.875
67429;-10.57;2.12;3.01;22.687;166.937;31.375;-4.94;1.98;8.02;74.063;-67;-11.438
67478;-14.88;2.7;2.72;23.625;123.75;76.563;-11.64;-5.81;0.58;-20.625;-65.75;10.188
67529;-12.27;1.46;3.26;94.25;134.25;64.813;-9.89;0.37;0.99;37.25;-51;-11
67580;-10.94;3.28;2.62;114.5;133.25;46.438;-9.62;1.02;-1.13;44.625;-43.938;-14.688
67628;-7.07;1.24;2.17;133;109.5;34.813;-9.11;-1.57;3.21;132.25;-56.438;-2.25
67678;-4.37;0.99;2.14;122;64.5;6.25;-8.95;-2.39;1.99;53.813;-46.375;-1.75
67730;-3.87;-1.19;1.08;84.875;1.5;-8.563;-9.02;-0.2;2.06;30.062;-48.063;6.812
67780;-3.11;-1.32;-2.04;-4.437;-39.188;-2.875;-8.6;-0.04;2.14;22.375;-49.875;7.437
67829;-9.65;3.79;-6;-36.625;-76.375;-17.187;-9.67;-1.37;0.84;37.938;-49.125;10.625
67878;-16.73;6.06;-8.94;72.625;-33.438;1.25;-10.13;-2.34;2.53;56.188;-36.375;6.75
67930;-6.11;0.88;-3.79;67.188;17.937;16.687;-11.45;-1.13;1.38;55.625;-11.813;4
67980;-14.05;-2.18;-2.14;-16.562;-39.688;7.125;-12.96;-2.67;0.51;36.625;2.563;11.438
68029;-6.76;0.6;-0.82;62;52.25;44;-13.5;-0.59;-2.31;-3.688;64;3.25
68078;-11.79;-1.05;1.74;-118.375;-61.625;13.313;-11.3;4.67;-3.44;9.438;174.875;16.312
68130;-9.54;6.47;3.16;-54.375;-62.688;6;-14.74;-1.49;5.74;102.375;138.062;-55.625
68179;-9.22;1.59;1.75;22.437;-74.875;-11.625;-13.67;-1.69;3.06;-60.438;132.25;-63.313
68228;-9.29;0.08;1.18;-87.938;-88.938;1.25;-13.42;-0.59;3.2;-112.938;145.75;-67.938
68279;-9.28;2.37;1.77;-159.187;-88.625;-4.062;-7.98;-1.79;3.38;-168.25;135;-56.063
68330;-9.17;3.52;0.93;-85.188;-68.5;-27.75;-4.9;0.21;3.98;-206.375;97.125;-21.625
68379;-9.55;2.11;0.24;-47.5;-58.25;-18.25;-3.34;2.3;1.92;-90.438;42.375;-16.687
68428;-9.08;1.7;0.46;-59.375;-50.625;-19.5;-2.72;1.58;-0.07;37.25;-23;-29.187
68479;-8.83;4.02;1.98;-31.375;-55.375;-22.875;-6.61;-2.52;-2.62;28.062;-83.438;-31
68530;-9.29;1.93;0.48;-4.062;-61.688;-19.125;-17.3;-1.71;-9.87;-60.5;-114.688;-1.062
68579;-9.71;2.67;3.66;-38.188;-38.25;-8.188;-12.84;2.66;-6.57;-79.125;0;20.437
68628;-13.06;2.98;1.58;-51.75;-17.187;15.063;-6.55;6.33;-1.31;28;-70;-6.312
68679;-13.65;2.96;-0.8;-57.625;27.687;13.063;-16.63;0.73;-3.42;-80.313;-130.875;3.063
68730;-12.5;1.1;-0.33;-16.812;117.438;19.687;-8.37;-2.63;1.64;81.625;-38.375;-31.437
68779;-10.7;0.97;2.06;30.375;170;25;-6.85;-1.32;5.6;78.5;-90.313;-4.25
68828;-15;3.25;3.17;11.375;130.75;66.75;-10.16;-3.51;2.74;-26.625;-58.5;-0.687
68879;-12.22;2.35;3.19;65.313;136.187;61.063;-9.62;1.47;-0.38;55;-60.563;-3.938
68930;-10.74;2.98;2.55;138.75;129.312;43.125;-8.83;0.91;0.29;99.625;-42.563;-19
68979;-7.24;1.29;1.93;138.437;110.188;28.437;-9.03;-3.24;3.41;123.688;-51;-1.687
69028;-5.53;0.35;2.01;137.25;69.313;3.875;-9.11;-1.45;2.43;42;-43.75;-0.125
69079;-3.91;-1.48;1.32;95.438;16.312;2.063;-9.01;0.13;2.69;22;-49.188;6.75
69130;-3.31;-1.76;-1.6;-6.312;-34.313;12.813;-9.43;-0.37;1.53;12.938;-49.313;8.188
69179;-7.07;2.12;-4.27;-23.5;-74.375;-17.375;-9.92;-0.57;1.63;22.875;-45.438;6.125
69227;-16.8;6.04;-8.1;17.062;-64.25;-7.375;-10.2;-2;2.21;52.688;-31.437;5.5
69279;-9.92;2.61;-5.07;26.375;-13.313;18;-10.94;-1.5;2.22;48.688;-15.063;5
69329;-12.94;0;-4.25;17.875;-33.688;6;-11.48;-2.61;0.22;14.313;-2;5.812
69379;-5.47;-3.26;0.99;65.75;28.25;42.25;-12.9;-0.09;-1.81;-2.813;45.813;-1.562
69429;-13.08;0.46;3.6;-83.188;-83.063;-2.75;-10.88;4.98;-3.14;28.937;138;10.688
69480;-9.09;4.63;2.96;-69.813;-75.75;13.75;-14.41;-2.39;5.98;128.062;150;-37.938
69529;-8.95;1.76;1.58;0.375;-91.188;-12.75;-12.84;-1.91;3.88;-26.687;123.75;-62.813
69579;-9.51;-0.32;0.38;-98.813;-91.938;-9.813;-12.96;-0.93;2.77;-120.688;124.688;-63.375
69629;-9.08;2.68;0.71;-141.687;-58.688;-4.625;-7.48;-1.36;2.86;-158.562;123.563;-51.938
69679;-9.25;3.98;0.8;-93.25;-45.063;-7.25;-5.55;0.65;3.25;-194.875;93.563;-20.125
69729;-9.05;2.36;0.73;-46.313;-44.625;-13.625;-5.42;2.71;2.03;-142.437;51.375;4.062
69778;-8.92;1.9;1.86;-32.625;-47.688;-22.25;-4.8;2.59;0.39;14.875;0.687;-18.75
69829;-9.32;1.78;0.74;-32.938;-53.813;-23;-6.65;-1.92;-3.07;103.688;-36.938;-19.125
69879;-8.78;3.23;1.55;-11.563;-40.375;-12.25;-12.8;-3.53;-8.08;-58.375;-56.5;16.375
69929;-9.42;2.23;2;-28.5;-26.875;-1.437;-12.73;-0.4;-7.33;11.625;-22.187;6.625
69978;-10.89;2.01;1.76;-50.125;-2.875;11.125;-4.68;3.3;-0.39;8.563;-56.438;-6.562
70028;-13.07;3.64;-1.14;-25.187;26.5;10.938;-18.72;-3.18;-0.37;-52.25;-134.75;21.75
70079;-13.86;0.69;-0.92;13.75;129.125;14.875;-8.95;1.07;0.3;134.562;-52.75;-42.125
70128;-11.61;0.85;3.24;12.625;172.062;43.813;-7.56;-3.4;6.82;51.688;-77.875;2.625
70178;-14.33;2.77;2.24;13.438;125.188;71.75;-10.58;-6.1;1.63;-15.875;-49.938;-5.437
70228;-9.96;1.89;3.23;111.813;138.937;61.75;-10.12;1.96;0.29;35.188;-57.313;3.125
70279;-9.34;1.12;2.08;138.187;115.125;41;-9.17;0.22;0.1;89.625;-34.813;-12.813
70328;-5.68;0.64;2.05;112.188;89.063;37.063;-9.64;-2.77;2.92;114.125;-53.5;5.812
70379;-4.2;-0.18;1.62;98.063;44.688;4.125;-9.12;-1.37;2.02;27.187;-42.313;6.375
70428;-3.79;-1.21;0.43;52.813;-16.812;-5.312;-8.57;0.12;2.49;22.437;-48.5;12.625
70479;-3.72;0.29;-3.21;-21.562;-58.188;-15.625;-9.83;-0.95;0.99;14.5;-57.25;9.875
70528;-12.34;3.17;-8.93;9.563;-104.75;-50.188;-9.66;-2.19;-0.42;27.687;-51.313;8.125
70578;-14.13;3.01;-7.75;63.063;5.5;13.25;-10.22;-4.14;1.85;48.938;-20.437;11.313
70628;-6.72;-2.91;-1.95;32.5;30.062;38.563;-12.64;-1.99;1.61;39.188;-13.75;-0.25
70679;-19.91;8.79;-13.86;78.188;-25.625;-9.688;-13.32;-1.61;-1.27;35;35.438;4.5
70728;-3.35;-10.1;2.3;-39.688;-19.375;49.438;-13.58;2.68;-1.48;9.688;104.438;-18.187
70778;-14.12;7.87;4.67;-193.937;-72.063;40.188;-12.17;0.82;4.23;90.25;177.562;-14.75
70828;-9.92;5.26;3.03;25;-74.5;-7.437;-15.18;-3.12;3.49;78.813;127.563;-75.5
70879;-9.84;0.95;0.63;-13.813;-84.563;-4.75;-12.96;-0.99;3.36;-108.75;117.375;-64.75
70928;-9.92;0.17;1.42;-158.875;-100.563;12.563;-11.15;-1.62;2.84;-140.25;123.25;-60.875
70978;-7.43;3.67;2.7;-191;-93.25;-5.187;-5.93;-1.03;3.52;-191.5;83.563;-34.813
71029;-8.07;2.19;1.93;-58.188;-89.313;-47.188;-3.75;1.35;3.99;-197.437;46.188;-2
71078;-8.41;2.9;-0.35;-30.812;-71.25;-45.375;-2.23;2.37;2.37;-116.625;7.25;-9.563
71128;-10.43;4.21;-0.86;-34.813;-46.938;-11.875;-3.41;3.03;-0.51;30.562;-53.063;-29.437
71178;-9.06;2.06;-0.86;-28.687;-31.062;-7.187;-14.32;0.19;-7.81;97.188;-110.188;11.375
71229;-9.22;4.99;3.71;-36.938;-19.125;-4;-19.18;-0.11;-11.43;-41;-8.375;-7.125
71278;-12.29;2.09;0.02;-24.375;2.75;21;-1.09;4.22;0.66;35.188;-12.625;-16.875
71328;-14.6;0.62;-2.05;-33.688;80;24.125;-16.95;-2.97;-0.04;-117.188;-173.125;39.125
71378;-13.59;0.85;-0.52;-2.188;160.812;10.75;-6.2;2.13;4.37;117.5;-53.25;-44.688
71430;-15.22;2.45;5.01;-16.562;147.437;68.375;-11.28;-3.71;2.97;-33.25;-94.438;20.125
71478;-13.03;2.15;3;100;127.125;62.25;-9.22;-4.59;0.02;85.438;-32.813;-34.125
71530;-11.62;0.64;2.47;130.687;120.563;48.938;-9.9;0.53;-0.4;57.813;-59.688;-1.625
71578;-7.66;0.11;1.49;142;85.438;41.25;-8.6;-1.3;1.74;82.688;-29.625;-5.25
71629;-4.27;-0.91;2.28;99.25;67.5;19.687;-9.59;-2.66;1;82.938;-53.313;1.312
71678;-4.29;-1.21;2.03;60.938;-0.937;-2.5;-8.93;-1.27;1.88;12.438;-36.188;12
71729;-4.68;-1.23;-0.16;-22.125;-49.688;-2.125;-9.02;-0.34;2.73;7.312;-48;11.75
71778;-6.35;1.98;-3.83;-57.625;-76;-21.25;-9.14;-0.87;0.83;-2.188;-53.25;9.938
71829;-19.57;9.38;-13.3;47;-71.375;-20.187;-9.5;-1;0.27;25.562;-45.125;16
71878;-7.44;0.67;-4.61;27.562;41.438;29.937;-10.16;-2.96;2.2;56.75;-15.813;7.187
71929;-9.37;-1.56;-1.26;18.25;-14.063;9.125;-12.78;-2.49;-0.42;45.063;-2.5;5.5
71979;-18.61;10.89;-8.11;183.75;-26.562;24.187;-13.97;0.01;-3.73;29.562;69.313;5.437
72029;-3.09;-9.65;9.81;-57.25;-40.688;-5.875;-12.14;1.78;-0.82;46;190.687;15.063
72078;-14.66;9.22;4.94;-132.937;-57.375;17.75;-16.04;-3.69;5.63;75.063;118.188;-68.813
72129;-8.78;1.58;2.25;31;-79.75;-17.062;-12.85;-1.55;3.36;-87.25;125.813;-59.75
72178;-9.13;-1.19;1.35;-90.438;-93.125;-2.375;-13.06;0.27;2.88;-152.875;125.75;-52.5
72229;-9.28;3.11;1.36;-158.625;-81.563;-13.938;-7.13;0.03;2.83;-126.125;102.563;-52.188
72278;-8.71;3.68;1.63;-103.438;-71.75;-27.375;-3.86;0.34;3.35;-143.875;61.688;-18.687
72329;-9.48;2.63;-0.85;-44.625;-50.188;-22.437;-2.97;2.82;2.74;-107.688;10.75;-1.312
72379;-8.65;2.97;1.14;-31.812;-50.688;-21;-4.79;3.61;1.01;16.312;-54.438;-17.562
72428;-9.16;2.4;0.55;-2.813;-53.375;-25;-9.64;-1.64;-4.44;48.313;-78.25;2.938
72478;-9.22;4.57;0.66;-23.562;-31.875;-15;-17.94;-3.48;-14.94;-21.062;-8.813;9.625
72529;-10.43;3.11;1.27;-27;1.187;12.125;-6.38;2.17;-4.07;56.313;-10;-3.438
72579;-13.31;3.49;-2.21;-16.812;33.188;26.937;-7.52;-0.67;7.4;11.313;-97.375;5.062
72628;-16.01;0.47;-3.06;3.625;132.375;18.25;-14.37;-1.94;-0.46;-79.875;-41.875;-13.063
72679;-13.91;2.27;4.24;-0.875;196.062;52;-3.33;3.29;11.34;69.938;-74;-5.187
72729;-16.34;4.02;3.78;36.5;123.313;74.625;-13.34;-8.72;-1.7;-24.187;-41.813;-2.813
72778;-10.42;1.29;3.12;129.687;137.25;55.875;-9.34;1.3;0.68;85.938;-61.313;-12.125
72829;-8.91;2.31;2.41;114.25;113.313;38.438;-8.66;1.38;-0.4;67.438;-30.375;-10.5
72880;-5.52;-0.18;2.28;128.875;71.25;27.5;-9.18;-3.03;2.13;92.313;-56.75;6.562
72929;-2.89;-0.8;2.45;80;20.812;-5.187;-8.79;-0.79;1.89;10.188;-47.313;10.75
72979;-4.49;-1.26;0.5;22.937;-33.75;-11.75;-9.36;-0.88;1.97;-0.625;-50.688;17.125
73029;-4.66;1.16;-3.22;-69.625;-75.438;-8.813;-9.31;-0.28;1.11;-4.125;-56.438;11.75
73080;-16.29;5.07;-11.38;-29.125;-107.625;-50.688;-9.14;-1.91;0.2;27.437;-40.75;9.938
73129;-14.55;3.88;-6.97;68.75;22.875;35.688;-10.42;-3.49;3.48;46.625;-23.937;10.313
73179;-7.79;-2.75;-2.19;38.063;15.875;12;-12.41;-1.11;0.95;37.813;-10.375;0.5
73229;-16.87;8.43;-9.69;168.625;-31;-1.812;-14.25;-1.66;-1.64;42.813;44.75;3.063
73280;-6.97;-6.23;0.45;-49.5;-33.188;44.25;-12.29;5.86;-4.47;23;146.562;8.438
73329;-9.9;6.02;2.36;-120.563;-61.5;24.375;-12.06;-3.7;6.25;139.875;150;-28.25
73379;-9.55;4.88;2.84;5.562;-60.438;-15.438;-14.36;-4.09;4;-24.187;126.125;-65.125
73429;-9.45;1.2;0.96;-35.063;-78.813;-2.063;-12.54;-0.16;2.95;-145.375;116.563;-54.5
73480;-10.47;2.15;1.3;-137.25;-104;-4.5;-9.33;-0.2;2.39;-146.5;116.563;-42.125
73529;-8.91;2.57;2.1;-131.437;-91.125;-19.562;-5.76;0.09;3.02;-143.062;64.125;-39.563
73579;-8.39;2.88;1.3;-79.063;-86.875;-45.625;-4.12;0.93;2.71;-146.062;36.25;-19.187
73630;-10.14;3.95;-0.32;-34.563;-66.438;-34;-4.3;2.47;1.29;-87.688;6.375;-19.062
73679;-8.73;2.23;-0.03;-31.125;-32.688;-4.062;-5.24;1.21;-2.28;40;-32.688;-23.125
73728;-8.81;2.71;2.11;-23.75;-30;-12;-12.28;-1.68;-5.87;48.75;-67.813;-9.813
73779;-9.27;1.82;2.45;-13.875;-30.75;-8.875;-15.08;-3.21;-11.23;-39.688;-5.625;-14.25
73830;-10.96;0.67;-0.01;-49.688;-12.25;9.813;-3.93;1.75;-3.45;-1.312;-11.25;-3.688
73879;-14.23;4.74;-2.52;-68.188;37.438;18.812;-13.85;-1.14;2.77;28.75;-119.813;9.125
73929;-13.63;4.61;-1.64;-26.5;150.687;31.437;-15.96;-1;1.23;-106.938;-51.063;15.688
73979;-14.03;2.28;4.56;44.5;176.437;61.375;-1.06;4.41;11.02;48.625;-44.063;-31.937
74030;-16.99;1.85;2.27;71.5;120.25;84.688;-11.12;-8.15;0.62;9.813;-64.938;13.188
74079;-11.12;1.35;3.11;136.75;129.437;53.313;-8.76;2.16;1.75;85;-37.438;-20.5
74129;-9.34;1.68;2.48;133.437;109.063;39.688;-9.37;0.53;-1.09;70.313;-31.937;-24.625
74179;-4.46;-0.2;2.06;115.313;80.75;24.937;-8.94;-1.76;2.66;139.562;-48.438;3.688
74230;-4.08;-0.77;1.71;88;9.75;-1.875;-9.01;-2.17;1.37;52.125;-42.75;1.625
74279;-4.67;-1.41;1.04;41.625;-39.125;-2;-9;-1.17;2.24;17.312;-39.625;11.25
74329;-4.91;0;-2.3;-44.563;-55.688;-13.375;-9.16;-0.34;0.91;6;-52.438;11.875
74379;-14.42;4.96;-8.96;-12.5;-83.375;-42.688;-10.05;-1.71;0.85;27.75;-45.625;11.125
74430;-13.24;6.39;-8.36;31.812;23.562;27.812;-9.69;-2.59;2.13;47.25;-29.125;11.438
74479;-4.94;0.65;-2.93;30.562;15.875;32.563;-10.92;-0.56;0.08;60.688;-9.25;0.375
74529;-12.77;3.69;-5.62;25.312;-56.875;-15.375;-11.9;-2.87;-1.55;45.625;8.563;10.75
74579;-2.42;-8.82;5.32;65.188;58.5;63.938;-14.14;-0.18;-3;6.875;100.563;4.062
74630;-9.16;2.92;1.36;-99.125;-68.188;12;-11.36;0.45;2.66;31.875;187.437;9.063
74679;-10.08;6.58;2.76;-36.188;-57.5;-5.562;-15.54;-3.4;4.19;97.5;117.063;-67.063
74729;-9.26;0.95;0.54;40.875;-78.125;-13;-11.94;-2.62;3.41;-95;125.375;-58.125
74780;-10.19;0.11;1.05;-93.188;-88.5;7.25;-11.13;-0.32;2.57;-151.062;125.25;-46.188
74830;-8.57;1.57;2.09;-158.437;-89.688;1.875;-6.71;-0.75;2.98;-137.687;83.938;-51.188
74879;-8.17;3.47;1.97;-104.313;-78.563;-32.875;-4.11;1.02;3.34;-165.875;49.875;-16.687
74928;-8.99;1.18;0.29;-42.875;-77.938;-36.375;-3.39;2.43;2.16;-106.813;11.75;-10.438
74980;-9.83;3.03;-0.65;-45.875;-49.5;-24.875;-4.81;1.99;-1.08;12.188;-23.437;-8.25
75030;-9.11;4.01;0.95;-30.937;-33;-11.438;-10.1;-1.54;-5;58.063;-56.5;-6.937
75079;-8.75;3.87;1.62;-30.125;-27.562;-1.562;-15.24;-4.48;-10.95;-10.938;-33.813;-7.125
75129;-9.81;2.05;2.61;-37.75;-14.563;7.75;-7.55;0.74;-4.49;-10.75;-13.125;4.875
75180;-13.16;4.62;-1.35;-40.063;5.187;13.063;-10.59;2.3;4.29;-16.687;-94.625;-3.813
75230;-14.61;0.53;-3.32;-12;89.5;19.687;-16.4;0.46;-5.25;-154.375;-91.188;14.688
75279;-13.51;4.56;3.86;-25.375;183.125;32.438;-5.31;3.2;8.64;49.313;-14.875;-19.25
75329;-15.59;4.08;3.52;70.75;111.813;73.438;-11.08;-7.84;3.4;24.687;-89.188;9.688
75379;-10.98;-0.92;2.13;132.437;122;54.188;-9.37;-0.45;0.87;57.375;-53.438;-23.125
75429;-10.28;0.43;2.26;88;120.813;32.563;-9.14;2.08;-0.93;25.375;-42.625;-12.063
75479;-7.79;2.05;2.05;87;96.188;45.063;-8.59;-0.49;2.24;129.687;-44.75;-0.875
75529;-3.54;0.45;2.59;102.75;72.688;3.438;-8.88;-3.7;2.1;57.938;-43.5;5.312
75580;-3.97;-1.88;1.85;76.313;3.438;-21.875;-9.03;-0.58;1.65;-1.062;-44.25;12
75629;-4.55;-1.8;-2.1;-22;-39.063;-23.375;-9.03;-0.23;0.96;-2.688;-52.063;7.187
75679;-11.7;3.81;-8.21;-46.938;-96.313;-35.688;-9.67;-1.87;0.71;33;-47.5;11.5
75729;-12.99;6.46;-7.81;33.313;-9.063;10.938;-10.31;-3.53;0.89;47.375;-24.687;2
75780;-3.41;0.4;-2.81;42.188;23.5;31.25;-10.62;-1.03;0.19;48.313;0.062;-3.5
75829;-13.06;5.47;-6.02;-24.062;-37.938;-8.875;-12.2;-2.27;-1.94;36;19.75;1.937
75879;-5.64;-5.16;3.8;69.688;14.063;82.188;-14.65;1.64;-2.1;20.312;119.188;-4.875
75929;-10.16;3.79;1.84;-94.125;-45.813;12.438;-11.82;-0.05;4.38;80.188;165.312;-23.062
75980;-10.72;7.85;2.88;-30.875;-63;-8;-16.19;-3.81;3.73;40.625;128.562;-63
76028;-9.74;0.74;0.57;26.812;-86.313;-11.125;-11.52;0.48;3.43;-116.438;125.438;-47.25
76078;-10.39;-0.21;0.93;-103.625;-95.688;3.813;-10.26;-1.07;2.68;-99.563;121.625;-45.5
76130;-8.05;2.59;1.99;-182.312;-92.375;-9.75;-4.41;0.03;3.01;-135;71.313;-40.063
76179;-8.17;3.59;1.28;-93.313;-80.25;-37.5;-3.42;0.5;3.25;-146.687;21.875;-7.937
76228;-9.14;2.79;0.26;-35.563;-68.25;-36.5;-4.18;1.99;1.6;-109.063;-8.938;-8.5
76278;-9.79;3.09;-0.84;-14.063;-55.188;-28;-5.93;1.49;-1.7;-4.875;-34.563;-20.812
76330;-9.2;3.3;0.77;-17;-41.063;-16.75;-13.45;-1.38;-8.31;55.688;-54.875;-4
76379;-8.59;3.41;2.8;-13.75;-33.063;-8.688;-14.19;-2.64;-9.24;-32.688;4.625;-2
76428;-10.13;0.78;1.14;-33.938;-20.062;6.125;-3.74;1.76;-2.4;8.438;-10.125;-4.687
76479;-12.88;3.87;-1.73;-49.625;18.125;12.813;-11.88;3.05;4.24;5.312;-99.688;-3.875
76530;-14.76;3.06;-1.94;-23.25;106.938;19.187;-16.38;-0.8;-2.96;-120;-52.563;3
76580;-12.96;2.35;1.6;31.625;165.062;38.563;-3.26;3.92;10.18;110.063;-53.75;-25.625
76628;-15.58;0.6;3.54;26.75;124.875;72.938;-11.89;-8.99;1.03;39.313;-73.875;7.625
76679;-12.04;0.74;2.57;92.188;135.312;67.5;-8.74;-1.66;3.11;55.5;-49.75;-8.688
76730;-10.43;1.93;2.89;120.938;126.813;45.375;-9.46;1.78;-1.79;5.625;-39.563;-15.75
76780;-6.79;-0.01;2.33;148.187;102.125;33.188;-8.78;-0.45;2.32;131.187;-51.063;3.188
76828;-4.53;-0.83;2.26;95.875;48.875;-0.875;-8.99;-2.63;1.54;56.438;-42.625;2.563
76879;-3.65;-1.18;1.45;37.125;-16.375;-8.5;-8.99;-1.8;3;24.75;-47.313;14.188
76929;-3.89;-0.44;-1.47;-26;-60.813;-7.125;-8.85;-0.45;1.46;-19.875;-49.563;12.188
76979;-10.51;3.45;-7.4;-37.938;-101.313;-35.063;-9.94;-1.54;-0.33;17.937;-50.125;12.063
77028;-16.45;8.82;-10.26;29.812;-17.562;20.187;-10.28;-3.38;1.78;45.25;-26.562;9.625
77079;-5.12;-0.87;-2.38;32.125;18.312;28.437;-10.89;-1.02;0.47;38.5;-5.125;0.937
77130;-12.09;5.33;-6.38;25.5;-36.938;-1.375;-12.3;-1.66;-1.79;27.625;18.937;-3.188
77179;-6.78;-4.37;8.55;-4.812;33.75;81.375;-14.36;2.05;-2.5;23.25;135;0.75
77228;-9.76;1.83;-1.67;-121.125;-44.438;28.5;-10.93;0.09;2.51;64.5;185.062;-10.75
77280;-9.23;10.24;3.57;-11.313;-54.5;-9.375;-16.14;-3.9;4.08;70.375;125.875;-74.188
77330;-10.38;0.32;0.59;37.5;-80.375;-13.625;-12.35;-1.76;3.73;-118.313;132;-57.063
77378;-10.16;-1.25;0.42;-119.625;-88.125;0.062;-11.29;-0.84;2.63;-144.312;128.312;-54.688
77428;-8.45;2.91;2.67;-169.187;-83.563;-13.188;-5.86;1;2.96;-132.75;79.188;-48.375
77480;-8.37;2.82;1.14;-75.313;-83.438;-42.75;-4.02;0.68;3.01;-149.875;40.375;-1
77530;-9.07;2.39;0.43;-23.625;-79.5;-43.813;-2.97;2.33;1.8;-83.375;-1;3.313
77579;-9.72;1.82;-1.29;-24.687;-63.75;-38.438;-4.28;1.31;-2.71;8.25;-39.313;-0.75
77628;-9.48;5.58;0.98;-48.813;-41.063;-15.063;-11.43;1.33;-7.99;67.938;-87.75;-3.875
77680;-8.75;5.02;1.02;-30.187;-23.75;-5.625;-15.32;-1.04;-9.89;-49.188;-7.562;17.687
77730;-10.42;3.52;0.94;-35;-0.625;27.25;-4.8;6.31;-2.57;34.563;-61.5;0.875
77778;-15.02;3.42;-1.55;3.063;69.25;40.625;-20.58;-1.26;2.96;-146.187;-144;37
77828;-15.35;2.24;-0.51;60.313;160.562;36.563;-9.2;-0.86;3.12;160.062;-21.937;-49.875
77880;-14.44;1.06;5.23;67.813;158.25;70;-8.11;-3.96;6.92;3.438;-122.875;17.812
77930;-13.09;1.19;2.89;91.25;137.125;60.375;-11.34;-5.45;-2.04;-23.875;-23.187;-13.5
77979;-9.15;0.4;2.55;89.563;133.875;32.813;-8.85;3.33;0.16;65.375;-62.875;4.937
78028;-7.88;0.89;1.67;59.375;100.25;43.75;-9.53;1.77;-0.5;70.375;-47.813;-6.562
78080;-4.23;0.2;1.13;48.938;62;14.75;-9.17;-3.87;2.57;90.125;-58.375;10.5
78130;-3.06;0.36;1.04;47.813;15.438;-18.562;-9.17;-2.67;2.18;-5.5;-45.063;10.188
78179;-5.26;-0.44;-0.99;25.125;-45.125;-23.625;-9.17;-0.13;1.32;-18.562;-46.5;7.5
78228;-7.32;2.4;-5.61;-31.687;-70.938;-32.688;-9.13;-0.45;-0.44;11.688;-56.063;8.188
78280;-17.11;6.43;-10.81;6.125;-62.375;-30.062;-9.16;-1.99;1.93;50.813;-36.813;13.063
78330;-10.13;2.09;-4.71;45.75;19.687;19.937;-10.35;-2.09;1.36;44.75;-17.812;6.812
78378;-7.25;-2.15;-1.28;25;-10.063;8.125;-13.17;-3.4;-0.82;46.938;13.5;-0.937
78430;-16.99;8.43;-4.18;214.062;-32.625;1.812;-15.25;-1.29;-3.46;3.125;84.688;2.063
78480;-2.58;-12.3;3.39;-51.438;-30.687;9.063;-12.5;4.22;-1.91;12.5;201;21.375
78530;-13.79;10.38;6.63;-212.625;-48.625;2.438;-16.71;-2.63;6.77;122.25;106.625;-76.688
78578;-8.04;6.35;3.02;8.438;-54.75;-11.063;-12.9;-3.2;3.68;-78.625;124.125;-57.938
78630;-9.07;1.69;1.52;-20.812;-80.063;-4.687;-12.86;0.07;2.62;-134.375;115.75;-39.938
78680;-9.6;-1.01;1.27;-138.5;-88.188;1.375;-7.33;-0.05;2.96;-120.063;89.063;-62.313
78730;-8.49;3.25;2.32;-173.812;-89.438;-21.25;-3.68;1.26;3.49;-132.812;34.313;-39
78778;-8.19;4.39;1.47;-53.438;-80.75;-36.875;-3.03;1.28;2.72;-123.313;-7.687;-16.062
78830;-9.57;1.7;-1.62;-25.75;-65.938;-29.875;-5.26;3.05;-0.16;-55.313;-38.125;-14.188
78880;-9.64;4.53;0.48;-50.313;-41.063;-19.312;-11.29;-1.31;-4.91;38.813;-57.688;-0.625
78929;-8.31;3.27;1.98;-14.625;-37.75;-17.562;-16.52;-3.92;-13.37;-7.125;-13.938;-7.812
78978;-10;2.16;2.99;-41.625;-23.625;-14.313;-9.23;0.91;-5.04;-9.938;21.312;-1.125
79029;-11.34;3.33;0.29;-58.875;-0.562;8.688;-1.84;1.09;2.42;5.625;-37.563;-19
79080;-13.13;1.73;-3.12;-39.438;50.625;17.375;-21.24;-1.71;-1.66;-13.5;-172.75;52.125
79129;-12.76;5.74;0.96;-31.5;150.312;29.25;-5.81;3.89;2.77;4.937;-42.813;-30.875
79178;-13.09;1.25;3.73;95.063;140.312;58.438;-10.45;-1.23;7.52;70.938;-94.375;3
79230;-13.75;1.48;2.62;82.75;113.625;65.125;-10.18;-6.19;0.98;69.75;-38.563;-15.188
79280;-11.1;0.61;2.88;128.125;114;52.563;-10.37;0.12;1.34;34.625;-60;-0.312
79329;-8.21;2.01;2.2;120.75;107.063;41.375;-8.78;0.25;-0.26;67.438;-29.687;-8.25
79377;-6.36;1.29;2.15;107.313;69.563;34.688;-9.15;-1.17;1.77;92.75;-46.25;4.625
79430;-5.46;0.58;1.17;110;35.313;7.25;-8.74;-2.4;2.26;35.563;-35.438;8.563
79480;-4.92;-1.03;-0.11;51;-14.25;4.5;-9.36;-0.54;2.46;18.437;-47.688;12.938
79529;-4.67;-0.68;-1.98;-9.188;-54.313;-11.063;-9.35;-0.41;-0.02;4.062;-45.375;9.688
79577;-11.66;2.4;-7.67;5.312;-84.813;-34.375;-9.32;-1.26;1.11;43;-34.938;13.75
79630;-11.09;5.86;-8.24;23.187;-2.563;16.75;-10.72;-2.33;1.01;52.063;-25.75;10.563
79680;-7.55;0.26;-4.79;33.438;-8.875;35.313;-10.75;-1.09;0.17;62.438;-2.875;10.188
79728;-18.35;6.21;-11.26;26.125;-15.375;-13.25;-13.15;-3.76;-2.63;42.563;16.437;3.313
79777;1.1;-11.34;4.85;1.75;-35.563;38.813;-13.17;1.5;-3.12;9.063;144.312;-6.187
79830;-14.82;8.73;7.02;-134.312;-78.625;9.938;-13.3;-2.86;5.98;74.75;156.937;-23.312
79880;-10.21;3.71;2.02;59.5;-71.938;-14.938;-14.34;-2.46;3.93;-14.438;111.125;-74.938
79928;-9.34;-0.63;0.68;11.813;-97;-6.562;-12.61;-1.17;3.24;-136.25;119.25;-59.188
79978;-9.67;-0.23;1.12;-124.5;-99.938;0.875;-9.95;-0.16;2.62;-112.938;110.188;-61.813
80030;-8.52;3.64;1.5;-154.25;-76.125;-16;-4.97;0.48;3.03;-134.875;61.063;-51.25
80080;-8.76;4.33;0.22;-73.688;-65.313;-24.187;-4.45;1.11;2.78;-146.312;20.312;-9.313
80128;-9.09;3.02;0.58;-41;-62.75;-21.937;-5.66;2.97;0.96;-68.188;-22.375;-10.75
80179;-8.67;1.69;0.3;-29.687;-47.563;-21.937;-7.9;-0.17;-2.94;44.063;-43;-15.375
80230;-9.14;3.92;1.54;-36.875;-41.688;-9.75;-13.36;-3.83;-7.65;17.625;-42.813;-6.25
80279;-9.26;2.12;1.39;-31.812;-27.437;-8;-12.8;-3.4;-9.66;-28.625;10;-12.438
80327;-10.53;0.25;1.49;-65.438;-7.562;8.563;-3.85;1.55;-2.97;-12.875;-13.438;-8.563
80380;-12.63;3.98;-0.93;-61.375;35.313;13.313;-14.12;0.84;3.3;-13.125;-127.563;28.5
80430;-14.57;3.28;-1.18;-17.375;127.625;22.375;-14.27;0.14;-0.96;-79.75;-55.938;-3.75
80479;-12.18;1.24;2.48;31.75;161.875;46.375;-2.91;2.6;9.85;149.812;-66.25;-27.437
80527;-14.54;2.71;2.88;12.563;116.938;71.25;-11.14;-9.35;1.41;4.312;-51.188;6.875
80579;-11.1;3.03;3;110.75;128.062;61.625;-8.14;1.71;3;64.313;-46.75;-7.437
80630;-10.38;1.48;3.24;165.437;114.188;37.063;-9.53;1.1;-1.72;33.563;-34.75;-13.75
80679;-7.88;-0.43;1.93;116.813;99.5;36.75;-8.84;-1.09;2.42;128.187;-41.313;5.75
80727;-5.17;0.33;2.39;92.438;56.063;17.812;-9.24;-2.83;1.34;61.875;-35.188;-0.5
80780;-3.72;-1.22;1.27;36.75;-5.375;6.125;-8.94;-0.62;2.64;26.375;-38.125;10
80830;-4.17;-1.29;-1.88;-41.75;-57.688;-9.688;-8.82;-0.25;1.58;-2.125;-39.688;11.063
80878;-9.53;3.42;-6.3;16.312;-102.75;-56.875;-9.56;-0.88;0.83;26.687;-45.563;13.188
80928;-18.54;7.82;-10.94;32.688;5.25;46.688;-10.32;-3.99;1.14;52.063;-28.375;17.937
80980;-6.02;-0.42;-2.54;20.687;27.062;28.875;-11.92;-0.75;-0.5;50.5;-3.125;6.875
81030;-11.07;5.13;-4.16;54.125;-59.125;1.312;-12.28;-2.1;-3.58;42.688;23.312;10.375
81078;-8.01;-7.04;9.59;34.875;27.312;53.625;-13.66;0.2;-3.22;31.25;146.375;10.75
81127;-10.56;3.37;1.02;-133.875;-68.938;23.875;-11.97;-1.37;4.1;49.5;184.937;-18
81179;-9.76;6.9;2.44;-18.5;-57.313;-13.125;-14.91;-1.76;3.27;25.937;118.938;-71
81230;-9.71;0.62;0.39;-17.875;-78.5;-7.125;-12.05;-1.09;3.07;-106;130.187;-55.5
81278;-8.94;0.12;0.46;-128.375;-77.813;-2.813;-9.56;-1.01;2.61;-129.312;115.063;-59.313
81328;-8.4;3.41;1.28;-135.562;-68.875;-13.188;-5.15;-0.45;3.27;-140.562;70.188;-47
81379;-8.78;3.87;0.56;-42.625;-61.875;-21.937;-4.75;0.66;2.58;-154.937;28.875;-16.687
81429;-9.21;2.15;0.3;-19.562;-60.625;-21.437;-4.61;3.3;0.45;-85.813;-7.5;-21.625
81477;-8.81;1.59;0.32;-39.25;-64.25;-22.937;-6.71;1.21;-2.16;40.813;-55.563;-21.937
81529;-8.62;3.37;1.36;-36.875;-46.813;-13.813;-14.4;-3.11;-8.45;29.75;-72.313;1.187
81579;-9.8;3.03;2.05;-45.063;-28.062;-7.125;-13.94;-2.94;-8.52;-23.937;3.688;-8.563
81629;-10.69;1.47;1.35;-58.938;-7.5;8.375;-2.45;1.32;-0.75;-3.875;-11.75;-10.125
81677;-13.46;3.78;-2.54;-51.063;35.438;12.688;-13.72;1.51;3.55;-36.375;-141.375;15.688
81729;-14.03;2.05;-3.08;-25.937;145.125;15.313;-14.64;3.51;-1.33;-142.75;-61.688;-9.125
81779;-13.02;3.39;3.41;3.938;180.5;53.125;-3.94;5.34;10.82;76.75;-32.313;-10.625
81829;-16.41;3.27;2.91;40.125;119.875;76.875;-11.21;-10.58;2.83;34.438;-60.25;4.187
81877;-11.45;1.19;2.22;115.25;122.188;54.125;-9.15;-0.29;2.51;54.813;-55.625;-7.687
81929;-9.58;2.51;2.98;125.75;114.188;32.563;-9.14;2.3;-1.7;36.125;-35.875;-19.687
81980;-5.07;-1.49;1.98;121.938;84.125;33.438;-9.05;-1.13;1.85;133.375;-45;3.188
82029;-3.83;-0.3;1.88;83.125;25.812;-3.938;-8.96;-2.73;2.47;53;-40.875;3.688
82078;-3.42;-0.78;0.95;34.5;-24.5;-2.313;-8.97;-1.86;2.03;16.625;-44.188;14.25
82130;-4.1;0.06;-2.76;-34.313;-69.625;-7.625;-9.42;0.04;-0.09;-8.688;-53.563;9
82179;-12.99;3.77;-8.37;-5.75;-110.375;-49.75;-9.55;-1.33;0.86;28.75;-39.875;10.125
82228;-17.22;6.77;-9.19;36.875;17.312;37.625;-10.33;-3.52;1.92;53.313;-31.812;11.75
82277;-4.43;1.09;-3;46.25;16.937;35.25;-10.42;-0.62;0.95;45.938;-5.125;-1.125
82329;-14.72;9.38;-8.51;110.875;-45.75;-4.25;-12.29;-1.44;-1.76;48.125;12.563;4.062
82380;-5.25;-9.2;0.07;-1.812;-27.687;48.563;-14.06;1.15;-2.89;38.938;124.188;0.25
82428;-11.74;5.73;2.94;-105;-70.313;29.312;-10.88;0.25;1.38;49.875;188.437;11.188
82477;-10.05;7.52;2.5;4.937;-58.375;-14.313;-16.07;-3.07;4.09;93.063;120.563;-74.938
82530;-9.68;0.75;0.06;9.375;-83.188;-3;-11.5;-1.11;3.08;-115.375;121.188;-55.125
82579;-10.12;0.15;0.9;-95.625;-83.25;-4.062;-11.33;-0.26;1.98;-125;130.437;-49.313
82628;-8.6;2.15;1.89;-131.062;-80.188;-13.563;-6.49;-0.42;2.51;-114.875;99.375;-51.813
82678;-8.66;2.89;1.46;-76.438;-76.813;-29.25;-4.14;1.41;2.76;-139.562;57.25;-18.687
82730;-9.03;2.08;0.43;-58.375;-66.875;-31.687;-2.99;1.97;1.47;-58.438;-2.125;-6.5
82779;-8.55;2.22;1.04;-29.75;-60.875;-28.125;-4.26;0.88;-0.99;10.625;-66.875;-11
82828;-9.6;3.56;-0.2;-18.812;-52.125;-16.75;-10.37;0.15;-5.57;5.437;-102.75;1.875
82878;-9.03;4.9;1.26;-43.5;-28.062;-3.5;-19.58;-0.75;-12.09;-28.75;-43.25;11.188
82930;-12.16;3.24;0.69;-47.438;2.813;24.25;-3.66;3.39;-0.57;21.687;-23.5;-2.438
82979;-14.25;3.31;-1.89;-26.375;55.5;27.875;-19.96;-3.19;-0.72;-169.25;-122.188;29.187
83028;-15.35;-0.82;-1.51;-1.625;161.812;23.312;-7.85;-0.4;4.58;150.5;-66.313;-50.625
83078;-11.55;0.62;3.78;-25.125;168.562;59.438;-10.17;-3.79;6.15;-47.563;-97.188;23.875
83130;-13.85;3.79;3.22;46.063;128.437;68.5;-10.44;-3.46;-0.67;47.25;-38.188;-26.687
83179;-10.22;1.18;2.55;100.5;127.375;42;-10.17;2.81;0.02;44.875;-57.813;-9.375
83227;-8.01;1.48;2.22;109.938;107.438;30.875;-8.76;-0.11;0.68;114.125;-36.875;-1.375
83278;-5.75;0.44;2.11;94.75;73.625;27.187;-9.44;-3.22;1.56;63.188;-51;2.688
83330;-4.17;-1.16;1.71;71;15.563;-3.125;-8.67;-1.06;2.08;8;-41.438;11.125
83379;-3.73;-1.43;-0.42;1.812;-31;-9.375;-9.31;-0.24;2.27;0;-48.938;11.063
83428;-4.88;2.09;-4.01;-43.75;-76.375;-25.312;-8.49;-0.38;1.2;22.125;-53.25;11.438
83478;-18.92;5.67;-11.33;19;-100.75;-27.375;-9.94;-2.34;-0.05;37.875;-44.625;11.438
83530;-9.6;1.14;-5.04;58.313;15.625;28.25;-10.81;-2.86;2.15;51.25;-20.75;16.625
83579;-9.47;-0.15;-4.07;51.938;-6.875;9.063;-13.08;-3.18;-1.53;40.313;-0.5;3.125
83627;-19.97;8.87;-8.41;194.5;-9.438;27.125;-15.23;-1.1;-2.73;21.687;89.5;-2.625
83680;-4.24;-6.6;2.01;-43.5;-69.875;12.813;-10.84;2.35;-0.29;9.938;195.937;10.063
83729;-11.17;8.89;5.38;-83.813;-56.438;3.813;-16.85;-3.21;5.36;83.813;122;-90.375
83779;-8.42;1.5;1.93;39.188;-78.125;-12.438;-13.2;-2.11;3.1;-108.5;127.875;-58.5
83827;-9.42;-0.42;0.79;-85.5;-82.813;-0.875;-13.88;-0.25;3;-131.5;128.5;-48.75
83880;-8.13;2.79;2.17;-160.937;-78.188;-2.75;-6.05;0.57;2.63;-104.25;98.188;-49.5
83929;-8.6;3.38;2.29;-93.688;-82.25;-30.687;-4.35;0.45;3.3;-113.063;50.563;-19.687
83979;-8.8;1.77;0.49;-43.25;-79;-38.938;-2.92;1.71;2.58;-97.875;12.375;-2.563
84029;-9.66;2.29;0.31;-23.187;-67.188;-38.5;-4.3;1.3;-0.6;11;-44.938;-12.75
84080;-9.85;5.28;-0.78;-20.312;-48.688;-11.813;-10.63;-1.34;-7.16;30.625;-84.75;-2.375
84129;-8.61;3.73;1.2;-40.375;-25.625;4.875;-18.87;-3.22;-12.72;-3.625;-38.813;2.875
84178;-10.81;2.75;1.11;-48.125;0.375;21.062;-4.33;2.51;-1.85;46.938;-21.437;-6.125
84229;-13.45;3.4;-2.29;-19.375;43.75;22.937;-18.14;-2.42;0.47;-111.125;-134;22.187
84280;-14.47;0.58;-0.26;-3.375;159.75;16.812;-9.28;0.51;3.6;125.188;-40.813;-35.313
84329;-13.86;1.28;4.84;-19.5;175.937;54.75;-6.32;-0.58;9.22;31.562;-100.875;9.625
84378;-13.86;2.39;3.09;52.688;126.438;71.688;-11.22;-7.45;0.07;-5.75;-45.438;-12.438
84429;-10.13;1.46;2.33;94.75;126.125;44.313;-10.01;1.75;0.7;63.313;-62.938;-2.625
84480;-8.54;2.77;2.76;119.438;100.5;42.438;-9.34;1.55;-0.62;82.375;-32.875;-10
84529;-4.95;0.16;1.91;118.75;71.438;23.062;-9.94;-4.07;2.36;98.5;-51.875;10.063
84578;-3.9;-0.35;1.76;82.438;21.625;-7;-8.86;-1.37;1.58;3.688;-39.125;8.063
84629;-4.84;-1.01;-0.27;14.875;-28.312;-6.5;-9.36;0.19;2.01;6.562;-47.375;12.25
84680;-5.47;1.4;-4.5;-64.75;-65.5;-11.188;-9.07;-0.51;0.88;10.75;-48.375;9.563
84729;-16.64;5.79;-9.59;26.937;-102.25;-50.563;-9.71;-2.07;0.64;41.563;-36.563;8.625
84778;-11.26;3.91;-6.67;53.25;10.063;22.75;-10.2;-2.9;1.98;48.875;-20.875;10.313
84829;-9.95;-1.42;-2.9;58.5;2.125;2.813;-13.11;-2.57;0.14;44.438;-3.625;7.687
84880;-18.04;8.96;-11.84;135.75;-27.125;14;-14.53;-1.4;-2.73;30.937;41.313;2.938
84929;-3.75;-7.61;5.61;-56.25;-50.438;39.563;-12.32;6.18;-5.01;22.437;171.25;22.875
84978;-13.57;6.41;4.18;-73;-62.313;12;-12.79;-3.35;6.82;145.062;145.812;-49.438
85029;-9.98;4.56;2.51;24.75;-72.063;-14.188;-13.61;-3.44;3.62;-62.75;124.438;-63.688
85079;-9.29;0.5;2.07;-30.312;-86.563;-1.437;-12.45;-0.31;2.8;-113.688;126.875;-44.813
85129;-9.55;-0.22;1.25;-153;-89.813;4.062;-8.7;-1.85;2.38;-110.438;101.375;-55.188
85179;-8.74;3.69;1.41;-151.937;-74.625;-22.375;-3.89;1.25;3.69;-155.812;50.688;-37.563
85229;-9.14;4.11;0.51;-52.688;-67.375;-24.062;-4.42;1.53;2.86;-127.688;9.875;-9.75
85279;-9.08;2.61;0.44;-21.437;-56.813;-25.25;-5.07;3.15;0.2;-20.375;-24.187;-21.687
85329;-9.47;2.21;-0.35;-10.75;-54.375;-23.5;-8.19;-0.69;-3.6;55.375;-56.5;-15.188
85379;-8.64;3.57;2.02;-18.25;-43.938;-11.875;-14.7;-4.34;-11.1;18.937;-50.563;0.5
85429;-9.47;2.97;1.92;-28.312;-24.187;-4.125;-12.47;-0.61;-7.48;-31;27.625;-9.375
85479;-11.72;1.77;0.39;-51.063;-5.375;10.75;-3.86;1.27;-2.32;-36.75;-6.375;-8.625
85529;-13;3.47;-1.95;-51.625;38.438;11.875;-12.77;-4.42;-2.53;-119.375;-91.25;-1.125
