time_ms;left_accel_x;left_accel_y;left_accel_z;left_gyro_x;left_gyro_y;left_gyro_z;right_accel_x;right_accel_y;right_accel_z;right_gyro_x;right_gyro_y;right_gyro_z;;;a;b;c
11278;2.44;13.28;-0.24;-0.634863515;-0.677414643;-0.47342056;-0.32;13.32;-1.67;3.438;-7.437;6.5;;;-36.375;-27.125;-38.813
11328;4.26;13.82;-3.03;-0.023998277;-0.172351264;-0.217084052;0.54;13.09;-2.62;-10.188;-20.187;48.625;;;-1.375;-12.438;-9.875
11379;-0.94;7.16;3.01;2.456550922;-0.223629037;0.318522588;-1.68;11.52;2.97;2.875;46.375;134.875;;;140.75;18.25;-12.813
11430;3.75;9.48;1.93;0.566149903;-0.335975881;-0.135263017;2.27;9.35;-0.62;-3.438;-18.125;122.75;;;32.438;-7.75;-19.25
11478;0.98;9.66;2.18;0.855211333;-0.407970713;-0.016353735;5.85;11.3;-3.16;-24.187;-0.937;82.813;;;49;-0.937;-23.375
11530;2.27;10.19;1.5;1.078840371;-0.352329616;-0.094893551;3.26;10.09;-0.98;-9.625;131.875;80.625;;;61.813;-5.437;-20.187
11579;3.53;9.6;1.82;1.310096496;-0.053459435;0.107983521;2.32;9.01;-0.12;-13.813;77.5;40.563;;;75.063;6.187;-3.063
11630;2.38;9.12;2.01;0.6697701;0.043633231;0.080721478;3.07;7.47;0.76;-15.188;33.813;-8.813;;;38.375;4.625;2.5
11679;2.46;9.54;2.19;0.375245789;-0.057822758;0.039269908;3.03;7.5;0.52;1.625;91.188;-56.438;;;21.5;2.25;-3.313
11729;2.23;9.54;0.22;0.124354709;-0.161442956;0.053459435;-1.04;9.35;0.24;22.375;154.875;-72.188;;;7.125;3.063;-9.25
11779;1.25;9.44;0.33;0.544315834;-0.104719755;0.008726646;-3.54;10.31;4.05;14.5;18.062;-45.813;;;31.187;0.5;-6
11829;3.09;8.91;2.72;0.680678408;0.027262043;-0.055641097;5.87;11.96;-0.92;-11.063;-87.063;-55.813;;;39;-3.188;1.562
11879;3.05;9.2;1.6;0.103620198;-0.135263017;0.052359878;1.14;9.25;-1.8;18.125;4.437;-33.5;;;5.937;3;-7.75
11929;0.79;8.46;2.77;-0.002181662;-0.085084801;-0.18654079;3.36;9.06;1.32;4.812;-10;-46.063;;;-0.125;-10.688;-4.875
11979;2.29;9.29;2.49;-0.159261294;-0.314159265;-0.322885912;1.76;9.3;-0.26;9;7.5;-48.25;;;-9.125;-18.5;-18
12029;1.26;9.72;1.55;-0.293424754;-0.169087498;-0.246527757;1.84;10.38;-0.12;8.188;-39.125;-20.937;;;-16.812;-14.125;-9.688
12079;1.57;9.66;2;-0.050178216;-0.045814893;-0.174532925;-0.09;11.4;-0.76;-7.062;29.5;0.312;;;-2.875;-10;-2.625
12129;0.9;9.63;1.86;-0.095993109;-0.016353735;-0.112346844;1.76;8.91;-0.39;-9.625;-29.625;0.875;;;-5.5;-6.437;-0.937
12179;0.93;9.62;1.89;0.165806279;0.027262043;-0.068731066;2.7;9.64;-0.17;-0.375;1.562;-0.875;;;9.5;-3.938;1.562
12229;1.71;9.46;1.94;0.176714587;0.030543262;-0.010908308;2.64;9.48;-0.58;-0.437;10.063;-1;;;10.125;-0.625;1.75
12278;1.49;9.49;1.73;-0.017453293;0.007627089;-0.021816616;2.12;9.81;0.11;0;7.125;-3.813;;;-1;-1.25;0.437
12329;1.6;9.5;1.83;-0.04691445;-0.016353735;-0.031625366;1.76;9.65;0.56;-1.125;4.437;-0.5;;;-2.688;-1.812;-0.937
12380;1.36;9.43;1.79;-0.115628063;-0.016353735;-0.016353735;2.01;9.71;-0.45;-0.75;-8.563;1.125;;;-6.625;-0.937;-0.937
12429;1.39;9.5;1.84;-0.049096112;-0.020717058;-0.00980875;2.05;9.68;-0.19;-0.75;-5.625;0;;;-2.813;-0.562;-1.187
12479;1.56;9.43;1.81;-0.094893551;-0.033807028;0;1.71;9.72;-0.17;0;1.25;0.625;;;-5.437;0;-1.937
12529;1.58;9.49;1.71;-0.093811447;-0.030543262;0.001082104;1.75;9.57;0.15;-0.437;-1.25;1.5;;;-5.375;0.062;-1.75
12580;1.54;9.54;1.91;-0.030543262;-0.010908308;0.007627089;1.81;9.66;0.1;-0.5;-4.125;1.5;;;-1.75;0.437;-0.625
12629;1.58;9.48;2.03;-0.043633231;-0.013089969;0.00980875;2.08;9.59;-0.13;-0.125;-2.875;1.812;;;-2.5;0.562;-0.75
12679;1.51;9.44;2.03;-0.058904862;-0.025080381;0.011990412;2.03;9.57;0.06;0.375;0.687;-0.5;;;-3.375;0.687;-1.437
12729;1.63;9.47;1.97;-0.023998277;-0.010908308;0.011990412;1.75;9.61;0.13;1.125;1.562;0.812;;;-1.375;0.687;-0.625
12780;1.6;9.41;1.98;-0.018535397;-0.001082104;0.00980875;1.86;9.72;0.07;1.062;0.375;-1.25;;;-1.062;0.562;-0.062
12829;1.71;9.44;1.93;0.00980875;0.003263766;0.007627089;1.68;9.58;0.07;0.312;2.375;1.187;;;0.562;0.437;0.187
12879;1.57;9.39;1.88;0.015271631;0.007627089;0.014172074;1.82;9.68;0.01;0.75;1.625;0.312;;;0.875;0.812;0.437
12929;1.71;9.44;1.88;0.055641097;0.013089969;0.013089969;1.78;9.67;0.06;0.437;3.313;0.187;;;3.188;0.75;0.75
12980;1.56;9.45;1.87;0.027262043;0.015271631;0.017453293;1.93;9.66;0.13;0.937;2.75;-0.75;;;1.562;1;0.875
13029;1.74;9.44;1.84;0.052359878;0.008726646;0.004363323;1.86;9.62;0.13;0.437;1.812;-0.25;;;3;0.25;0.5
13079;1.69;9.43;1.79;-0.003263766;0.005445427;0;1.93;9.56;0.21;0.187;0.312;-0.937;;;-0.187;0;0.312
13129;1.65;9.46;1.85;-0.011990412;-0.007627089;-0.004363323;1.83;9.66;0.09;0.375;-0.5;-0.875;;;-0.687;-0.25;-0.437
13180;1.6;9.48;1.87;-0.006544985;-0.005445427;-0.006544985;1.82;9.59;0.11;0.062;-0.937;-0.687;;;-0.375;-0.375;-0.312
13229;1.51;9.4;1.88;0;0.00980875;-0.001082104;1.98;9.68;-0.05;0.187;-2.438;-0.75;;;0;-0.062;0.562
13279;1.64;9.45;1.88;-0.007627089;-0.00980875;-0.006544985;1.91;9.58;0.06;0.187;-0.5;-1.187;;;-0.437;-0.375;-0.562
13330;1.51;9.39;1.86;-0.018535397;-0.00980875;-0.003263766;1.83;9.7;0;0.625;0.187;-1.125;;;-1.062;-0.187;-0.562
13380;1.71;9.47;1.88;0.001082104;-0.008726646;-0.005445427;1.86;9.65;0;0;0.125;-1;;;0.062;-0.312;-0.5
13429;1.62;9.43;1.8;-0.002181662;-0.008726646;0.002181662;1.85;9.64;0.11;0.125;-0.812;-0.5;;;-0.125;0.125;-0.5
13479;1.71;9.46;1.91;0.006544985;-0.005445427;0.001082104;1.89;9.61;0.17;-0.375;0.187;-0.25;;;0.375;0.062;-0.312
13530;1.59;9.43;1.86;-0.001082104;-0.010908308;-0.005445427;1.89;9.63;0.08;-0.125;-1.875;-1.125;;;-0.062;-0.312;-0.625
13579;1.71;9.43;1.93;-0.001082104;-0.008726646;-0.00980875;1.86;9.61;0.16;-0.5;-0.187;-0.125;;;-0.062;-0.562;-0.5
13629;1.49;9.45;1.9;-0.004363323;-0.006544985;-0.005445427;2.01;9.63;-0.01;-0.125;-1.875;-0.812;;;-0.25;-0.312;-0.375
13679;1.59;9.46;1.96;0.00980875;0.003263766;-0.002181662;1.9;9.62;0;-0.25;0.312;0.062;;;0.562;-0.125;0.187
13730;1.45;9.44;1.93;0.002181662;0.006544985;0.00980875;1.99;9.63;0.04;-0.125;-0.187;-0.375;;;0.125;0.562;0.375
13779;1.55;9.43;1.99;0.00980875;0.004363323;0.008726646;1.91;9.58;0.14;0.125;1.312;0.625;;;0.562;0.5;0.25
13829;1.68;9.49;1.83;0.011990412;0.001082104;-0.001082104;1.99;9.68;0.03;-0.062;0;-0.437;;;0.687;-0.062;0.062
13879;1.6;9.44;1.88;-0.005445427;0;0.003263766;1.89;9.6;0.11;0.25;0.5;-0.062;;;-0.312;0.187;0
13930;1.62;9.46;1.88;-0.005445427;0;0.001082104;1.92;9.64;0.14;-0.25;-0.375;0.312;;;-0.312;0.062;0
13979;1.65;9.45;1.88;-0.014172074;-0.006544985;0;1.93;9.63;0;0;-1.062;0;;;-0.812;0;-0.375
14028;1.59;9.45;1.89;-0.013089969;-0.002181662;0.003263766;1.89;9.63;0.11;-0.187;-0.562;-0.125;;;-0.75;0.187;-0.125
14079;1.59;9.44;1.87;-0.007627089;-0.007627089;0;1.91;9.62;0.02;0.187;-0.437;0.062;;;-0.437;0;-0.437
14130;1.69;9.43;1.84;-0.011990412;-0.004363323;0.005445427;1.91;9.66;0.03;-0.062;0.5;0.187;;;-0.687;0.312;-0.25
14179;1.6;9.43;1.85;-0.021816616;-0.006544985;-0.002181662;1.93;9.61;0.19;-0.125;0.562;0.812;;;-1.25;-0.125;-0.375
14229;1.7;9.44;1.9;-0.031625366;-0.007627089;0.001082104;1.99;9.55;0.13;-0.5;-3.313;0.25;;;-1.812;0.062;-0.437
14279;1.58;9.46;1.92;-0.06000442;-0.017453293;-0.003263766;1.78;9.71;-0.01;0.187;-1.937;-0.312;;;-3.438;-0.187;-1
14330;1.57;9.43;1.95;-0.017453293;-0.010908308;0;1.81;9.61;0;-0.25;-1.312;0.187;;;-1;0;-0.625
14379;1.55;9.43;1.96;0.013089969;0;0.006544985;1.85;9.62;0.1;0.25;0.5;-0.375;;;0.75;0.375;0
14428;1.64;9.43;1.95;0.064367743;-0.002181662;0.010908308;1.99;9.52;0.12;0.687;1.125;-0.625;;;3.688;0.625;-0.125
14480;1.54;9.41;1.99;0.044732789;-0.002181662;0.007627089;1.95;9.64;-0.04;1.062;3.688;-1.937;;;2.563;0.437;-0.125
14530;1.64;9.46;1.86;0.06981317;0.002181662;0.013089969;1.82;9.75;0.01;2.375;7.312;-2.125;;;4;0.75;0.125
14579;1.73;9.42;1.79;0.033807028;0.005445427;0.019634954;1.77;9.72;0.17;0.25;2.813;0.812;;;1.937;1.125;0.312
14628;1.72;9.38;1.78;0.016353735;-0.004363323;0.00980875;2.13;9.51;0.28;-0.125;-2.75;1.062;;;0.937;0.562;-0.25
14680;1.77;9.42;1.79;-0.04691445;-0.011990412;-0.001082104;1.97;9.58;0.07;-0.625;-2.063;0.875;;;-2.688;-0.062;-0.687
14730;1.49;9.46;1.92;-0.074176493;-0.004363323;0.003263766;1.89;9.63;0.05;0.062;-4.687;0.25;;;-4.25;0.187;-0.25
14779;1.5;9.5;2.08;0.002181662;0.017453293;0.021816616;1.86;9.73;0.02;0.187;-2.438;1.125;;;0.125;1.25;1
14829;1.58;9.41;2.13;0.015271631;0.027262043;0.027262043;2;9.6;0.03;0.25;-1.625;1.562;;;0.875;1.562;1.562
14880;1.66;9.38;1.89;0.020717058;0.019634954;0.027262043;1.97;9.56;0.17;0.875;2;0.875;;;1.187;1.562;1.125
14930;1.71;9.54;1.69;0.0283616;0.016353735;0.025080381;1.83;9.62;-0.02;1.375;2.063;0.437;;;1.625;1.437;0.937
14979;1.53;9.54;2;0.006544985;0.036006142;0.04691445;1.66;9.76;-0.19;1.375;2;-0.062;;;0.375;2.688;2.063
15029;1.41;9.39;2.03;0.127618475;0.055641097;0.049096112;1.54;9.62;0;1.5;3.25;1.187;;;7.312;2.813;3.188
15080;1.92;9.36;1.8;0.163624617;0.043633231;0.055641097;1.91;9.58;0.08;2.375;8.188;0.437;;;9.375;3.188;2.5
15129;1.88;9.43;1.56;0.116710167;0.031625366;0.034906585;1.96;9.69;0.35;2.063;7.375;0.562;;;6.687;2;1.812
15179;2.15;9.51;1.68;0.089448124;0.007627089;0.039269908;2.01;9.57;0.43;0.312;0.437;0.875;;;5.125;2.25;0.437
15229;1.78;9.41;1.76;0.004363323;0.023998277;0.02289872;1.76;9.68;0.04;0.687;-1.062;0.312;;;0.25;1.312;1.375
15280;1.58;9.41;1.82;0.016353735;-0.002181662;0.007627089;1.61;9.63;0;0.625;0.625;-0.187;;;0.937;0.437;-0.125
15329;1.87;9.36;1.66;0.053459435;-0.005445427;0.011990412;1.4;9.79;-0.02;1.375;6.062;-0.75;;;3.063;0.687;-0.312
15379;2.15;9.4;1.44;0.023998277;-0.003263766;-0.004363323;1.65;9.48;0.33;-0.875;0;1.25;;;1.375;-0.25;-0.187
15429;1.96;9.45;1.74;-0.036006142;-0.002181662;-0.020717058;1.96;9.8;0.32;-2.25;-4.062;2.25;;;-2.063;-1.187;-0.125
15479;1.84;9.42;1.85;-0.101438536;-0.027262043;-0.017453293;2.25;9.47;0.29;-1.312;-9.313;-1.125;;;-5.812;-1;-1.562
15529;1.59;9.4;2;-0.13962634;-0.04691445;-0.032724923;1.88;9.66;-0.03;-1.187;-4;-1.375;;;-8;-1.875;-2.688
15579;1.66;9.46;2.02;-0.113446401;-0.065449847;-0.040369466;1.73;9.6;0.13;0.375;-2.625;-3.25;;;-6.5;-2.313;-3.75
15630;1.82;9.47;1.82;-0.065449847;-0.045814893;-0.039269908;1.74;9.72;0.24;-0.562;-3.25;-1.687;;;-3.75;-2.25;-2.625
15679;1.97;9.48;1.82;-0.087266463;-0.058904862;-0.045814893;2.01;9.51;0.25;-1.187;-6.937;-1.625;;;-5;-2.625;-3.375
15729;1.77;9.39;1.83;-0.115628063;-0.040369466;-0.042551127;1.82;9.63;0.17;-0.937;-8.813;-1.562;;;-6.625;-2.438;-2.313
15778;1.7;9.41;2;-0.095993109;-0.026179939;-0.034906585;1.9;9.57;0.19;-1.562;-9.125;-1.375;;;-5.5;-2;-1.5
15830;1.67;9.41;1.97;-0.070895274;-0.023998277;-0.040369466;1.71;9.74;-0.04;-2.188;-5.875;-1.5;;;-4.062;-2.313;-1.375
15879;1.66;9.41;2.02;-0.006544985;-0.007627089;-0.026179939;1.94;9.62;0.16;-1.687;-4.187;-1;;;-0.375;-1.5;-0.437
15928;1.62;9.44;1.95;0.02289872;-0.005445427;-0.027262043;1.99;9.78;0.16;-1.625;-2.75;-1.062;;;1.312;-1.562;-0.312
15978;1.83;9.42;1.88;-0.0283616;-0.004363323;-0.02289872;1.94;9.51;0.07;-2.25;-4.25;0.875;;;-1.625;-1.312;-0.25
16030;1.38;9.38;1.96;-0.075258597;0.003263766;-0.019634954;1.98;9.59;-0.05;-2.125;-2.875;-0.062;;;-4.312;-1.125;0.187
16079;1.34;9.53;2.04;0.006544985;0.044732789;0.008726646;1.89;9.67;-0.31;-0.562;-0.562;0.125;;;0.375;0.5;2.563
16128;1.48;9.42;2.05;0.06000442;0.032724923;0.02289872;1.8;9.63;-0.17;-0.75;3.688;1.312;;;3.438;1.312;1.875
16178;1.64;9.42;1.76;0.043633231;0.029443704;0.013089969;1.79;9.51;0.16;0.125;4.625;0.75;;;2.5;0.75;1.687
16230;1.67;9.54;1.69;0.086166905;0.06000442;0.036006142;1.69;9.67;-0.12;1.187;5;0.375;;;4.937;2.063;3.438
16279;1.59;9.48;1.76;0.188722452;0.090530228;0.061086524;1.65;9.68;-0.09;2.563;7.625;-1.937;;;10.813;3.5;5.187
16328;1.69;9.42;1.81;0.223629037;0.066549404;0.053459435;1.5;9.74;-0.06;2.25;13.813;-1.187;;;12.813;3.063;3.813
16377;1.8;9.41;1.74;0.214902391;0.049096112;0.036006142;1.93;9.63;0.18;1.687;10;-0.625;;;12.313;2.063;2.813
16430;1.83;9.48;1.57;0.154897971;0.031625366;0.0283616;2.2;9.56;0.21;0.437;6.125;-0.125;;;8.875;1.625;1.812
16479;1.87;9.41;1.68;0.043633231;0.019634954;0.013089969;2.2;9.54;0.19;-0.062;3.188;-0.187;;;2.5;0.75;1.125
16528;1.67;9.41;1.87;-0.039269908;0.003263766;0.002181662;2.12;9.61;0.36;-1.25;-0.875;1.5;;;-2.25;0.125;0.187
16578;1.71;9.44;1.82;-0.06981317;-0.010908308;-0.007627089;2.12;9.6;0.13;-1.187;-2.438;0.937;;;-4;-0.437;-0.625
16630;1.68;9.48;1.81;-0.101438536;-0.016353735;-0.014172074;1.91;9.73;-0.13;-1.25;-1.937;0.875;;;-5.812;-0.812;-0.937
16680;1.58;9.47;1.8;-0.075258597;0.004363323;0.007627089;1.92;9.6;0.19;-0.312;-4;0.75;;;-4.312;0.437;0.25
16728;1.66;9.46;1.82;-0.026179939;0.010908308;0.011990412;1.86;9.67;0.01;-0.25;-3.625;1.062;;;-1.5;0.687;0.625
16779;1.7;9.48;1.83;-0.055641097;-0.004363323;0;1.94;9.7;0.08;-0.187;-4.062;1.062;;;-3.188;0;-0.25
16830;1.76;9.4;1.76;-0.058904862;-0.02289872;-0.007627089;1.82;9.58;0.02;-0.437;-4.25;0.625;;;-3.375;-0.437;-1.312
16880;1.63;9.49;1.66;-0.074176493;-0.027262043;-0.00980875;1.62;9.69;-0.28;-0.062;-0.125;0.5;;;-4.25;-0.562;-1.562
16928;1.45;9.52;1.67;-0.010908308;0.017453293;0.017453293;1.53;9.59;-0.19;-0.187;0.062;2.125;;;-0.625;1;1
16979;1.53;9.5;1.87;0.089448124;0.063268185;0.050178216;1.57;9.76;-0.34;0.75;4.687;2.188;;;5.125;2.875;3.625
17030;1.68;9.48;1.87;0.129800136;0.057822758;0.050178216;1.59;9.84;0.08;-0.5;8.188;5.375;;;7.437;2.875;3.313
17080;1.91;9.35;1.79;0.112346844;0.054541539;0.045814893;2.26;9.44;0.57;-0.25;2.313;3.938;;;6.437;2.625;3.125
17128;2.03;9.35;1.65;0.033807028;0.032724923;0.025080381;2.39;9.37;0.59;-0.625;-2.063;2.313;;;1.937;1.437;1.875
17180;2.15;9.45;1.57;-0.129800136;-0.020717058;-0.023998277;2.13;9.48;0.28;0.437;-8.375;-0.937;;;-7.437;-1.375;-1.187
17230;1.95;9.46;1.46;-0.230174022;-0.068731066;-0.055641097;1.76;9.8;0.23;0.562;-12;-4.062;;;-13.188;-3.188;-3.938
17280;1.99;9.5;1.56;-0.25089108;-0.070895274;-0.063268185;1.22;9.8;0.01;-1.375;-13.438;-1;;;-14.375;-3.625;-4.062
17328;1.55;9.42;1.77;-0.184359129;-0.040369466;-0.032724923;1.36;9.78;-0.24;-1.812;-13.313;1.125;;;-10.563;-1.875;-2.313
17380;1.51;9.27;1.93;-0.027262043;-0.043633231;-0.019634954;1.56;9.54;-0.12;-0.875;-7.937;-2.375;;;-1.562;-1.125;-2.5
17430;1.57;9.13;1.89;0.027262043;-0.064367743;-0.014172074;1.78;9.52;-0.21;1.5;0.812;-3.75;;;1.562;-0.812;-3.688
17479;1.77;9.46;2.18;0.053459435;-0.097075213;-0.011990412;2.24;9.85;0.13;3.063;5.812;-7.875;;;3.063;-0.687;-5.562
17528;1.42;9.24;2.21;0.086166905;-0.146171325;-0.031625366;2.04;9.61;0.37;2.375;2.438;-6.437;;;4.937;-1.812;-8.375
17580;1.67;9.43;1.76;0.073076936;-0.119991386;-0.029443704;2.03;9.38;0.22;0.25;2.625;-2;;;4.187;-1.687;-6.875
17630;1.86;9.41;2.41;0.163624617;-0.103620198;-0.038187804;2.36;9.36;0.38;0.25;-5.437;-5.5;;;9.375;-2.188;-5.937
17679;1.84;9.31;2.47;0.12107349;-0.090530228;-0.04145157;2.12;9.71;0.26;-0.187;0.437;-5.875;;;6.937;-2.375;-5.187
17728;1.75;9.6;2.46;0.082903139;-0.020717058;0.007627089;2.49;9.33;0.27;1;3.563;-6.937;;;4.75;0.437;-1.187
17780;2.25;9.6;1.79;0.194167879;0.166905836;0.062186081;2.09;9.55;0.48;0.25;13.625;-9.438;;;11.125;3.563;9.563
17830;2.39;9.8;1.31;-0.039269908;0.293424754;0.110165182;2.29;9.33;-0.32;-0.562;44.813;-4.812;;;-2.25;6.312;16.812
17879;2;10.28;1.1;0.036006142;0.523598776;0.249808976;2.75;9.02;0.85;4.625;39.813;-7.187;;;2.063;14.313;30
17927;2.96;11.04;0.73;-0.417779463;1.168288495;0.234537345;2.98;9.15;0.25;8.063;23.125;-10.375;;;-23.937;13.438;66.938
17980;0.57;11.12;-1.85;-0.717766655;2.019136505;0.089448124;3.14;9.69;-0.56;8.438;53.875;-6.937;;;-41.125;5.125;115.688
18030;2.89;9.84;0.58;0.135263017;2.088949675;0.329430896;2.54;9.76;0.74;3.625;20.937;-14.5;;;7.75;18.875;119.688
18078;3.35;9.26;0.59;-0.728674963;1.439896633;0.219265714;1.02;10.2;0.58;-6;-20.375;-7.687;;;-41.75;12.563;82.5
18128;1.63;8.53;-0.45;-1.00356432;0.79412481;0.056723201;2.84;9.48;-0.88;-7.375;-34.563;-3.375;;;-57.5;3.25;45.5
18180;1.18;7.26;-0.63;-0.417779463;0.234537345;0.112346844;2.98;8.93;-0.61;-5.687;-16.937;-6.437;;;-23.937;6.437;13.438
18230;0.16;7.06;-0.68;-0.493055514;-0.231256126;-0.042551127;2.11;9.41;-0.09;2.313;2.188;-11.875;;;-28.25;-2.438;-13.25
18278;0.28;7.74;-1.61;0.034906585;-0.496319279;-0.143989663;1.66;9.62;0.02;1.437;0.187;-10.875;;;2;-8.25;-28.437
18327;0.97;8.1;-2.2;0.47342056;-0.740682828;-0.34360297;1.77;9.43;-0.4;1.812;-4.062;-11.063;;;27.125;-19.687;-42.438
18379;2.22;10.36;-2.64;0.364337481;-0.969757292;-0.277071019;2.37;9.65;-0.8;4.25;-1.437;-16.75;;;20.875;-15.875;-55.563
18430;4.38;12.11;-5.27;0.203994083;-0.244346095;0.02289872;2.29;9.44;-0.91;5.75;-0.312;-18.187;;;11.688;1.312;-14
18478;1.76;9.4;-3.22;0.078539816;0.162542513;0.200712864;2.61;9.75;-0.48;6.187;-7.375;-16.812;;;4.5;11.5;9.313
18527;0.48;9.93;-0.36;0.184359129;-0.251990637;0.081803582;2.21;10.25;-0.94;2;-19.937;-11.875;;;10.563;4.687;-14.438
18579;3.76;10.16;-2.81;-1.701696021;-0.260717284;0.106901417;1.75;10;-0.5;2.125;-25.812;-3.813;;;-97.5;6.125;-14.938
18630;2.06;9.85;-1.59;-0.062186081;-0.211621172;0.358874601;1.34;11.26;-0.32;-1.125;-17.437;11.688;;;-3.563;20.562;-12.125
18677;-1.76;6.47;3.31;-0.351247512;0.002181662;0.106901417;-0.61;11.73;0.45;-9.75;-21.687;37.5;;;-20.125;6.125;0.125
18730;3.17;10.27;1.45;0.786497721;-0.717766655;0.15271631;-1.5;11.79;0.9;-15.125;-11.563;85.563;;;45.063;8.75;-41.125
18780;1.89;9.02;2.26;0.267262268;-0.907571211;-0.030543262;1.35;10.6;1.35;-1.562;-32.5;152.75;;;15.313;-1.75;-52
18829;1.22;9.68;1.19;0.45486771;-0.767944871;-0.162542513;4.48;12.24;-1.27;-31;-47.75;131.5;;;26.062;-9.313;-44
18877;3.26;9.62;1.27;1.428988325;-0.634863515;0.014172074;4.53;10.94;-2.1;-46;23.937;106.438;;;81.875;0.812;-36.375
18930;3.92;9.92;0.61;0.969757292;-0.226892803;0.055641097;1.83;9.46;0.48;-22.375;126.938;93.188;;;55.563;3.188;-13
18980;2.9;9.27;1.03;0.356692939;-0.082903139;0.162542513;0.9;7.51;1.45;-22.812;77.5;65.625;;;20.437;9.313;-4.75
19029;2;8.89;1.99;0.131981798;-0.12107349;0.032724923;0.99;8.31;1.83;-17.187;56.438;17.5;;;7.562;1.875;-6.937
19077;2.59;9.42;2.04;-0.027262043;-0.297788077;-0.081803582;-0.57;8.61;1.78;-17.375;0.625;10.063;;;-1.562;-4.687;-17.062
19129;1.56;9.39;1.14;0.122173048;-0.311977604;-0.116710167;-1.88;8.67;-0.12;-14.063;-70.813;1.75;;;7;-6.687;-17.875
19180;3.02;9.56;1.52;0.105801859;-0.27925268;-0.071994832;-2.77;9.55;-2.98;-1.5;-34.188;-9.313;;;6.062;-4.125;-16
19229;2.27;9.41;1.95;-0.37196457;-0.244346095;-0.011990412;-2.3;8.94;-2.25;5.5;6.5;-13.563;;;-21.312;-0.687;-14
19277;0.82;9.28;2;-0.195267437;-0.294524311;0.013089969;-1.92;8.76;-0.86;6.875;10.563;-32.313;;;-11.188;0.75;-16.875
19330;1.68;9.47;2;0.293424754;-0.233437787;-0.006544985;-2.35;9.5;-0.75;7.5;12.938;-33.25;;;16.812;-0.375;-13.375
19380;1.9;9.16;2.28;0.242164434;-0.224711141;0;-2.11;9.88;-0.5;7.5;17.875;-27.812;;;13.875;0;-12.875
19428;1.96;9.17;2.24;0.280334784;-0.231256126;-0.051277773;-1.61;10;-0.65;2;12.063;-21.687;;;16.062;-2.938;-13.25
19477;2.39;9.11;2.39;0.234537345;-0.245445653;-0.039269908;-0.64;9.66;0.06;-0.375;7.25;-24.312;;;13.438;-2.25;-14.063
19530;2.44;9.5;2.56;0.118891829;-0.27925268;-0.04145157;-0.57;10.27;0.35;7.5;-2.563;-34.25;;;6.812;-2.375;-16
19580;2.09;9.08;2.33;0.04145157;-0.257436065;-0.050178216;-2.12;11.05;-0.36;8.188;35.25;-22.25;;;2.375;-2.875;-14.75
19628;2.27;9.22;2.68;0.188722452;-0.253072742;-0.065449847;-1.54;9.74;-0.45;0.125;11.375;-14.625;;;10.813;-3.75;-14.5
19677;1.9;9.36;2.44;0.339239647;-0.224711141;-0.044732789;-0.57;9.52;-0.08;5.25;-6.625;-32.438;;;19.437;-2.563;-12.875
19730;2.38;9.53;2.07;0.443959402;-0.044732789;0.006544985;-0.32;9.62;-0.5;3.313;13.5;-24.5;;;25.437;0.375;-2.563
19779;2.32;9.43;2.17;0.273807253;0.208357406;0.105801859;0.2;9.69;0.04;2.688;16.562;-25.187;;;15.688;6.062;11.938
19828;1.97;9.39;2.55;0.287979327;0.311977604;0.153815867;0.13;10.03;-0.39;-1.375;-0.812;-24.312;;;16.5;8.813;17.875
19877;1.63;9.78;2.33;0.166905836;0.405789051;0.104719755;0.72;9.92;-0.38;-5.125;10.5;-17.187;;;9.563;6;23.25
19930;1.25;10.2;0.94;0.122173048;0.643590162;0.016353735;1.02;9.37;-0.4;-4.812;0.25;-18.75;;;7;0.937;36.875
19979;0.91;10.47;0.22;-0.038187804;1.330813555;0.115628063;1.9;9.23;-0.87;-0.062;14.125;-20.187;;;-2.188;6.625;76.25
20028;1.78;10.95;1.62;-0.18107791;1.47698488;0.123255152;1.35;9.75;-1.08;5.25;27.937;-23.75;;;-10.375;7.062;84.625
20079;1.4;11.03;0.58;-0.38505454;1.634064512;0.110165182;0.45;10.39;-0.77;5.25;26.875;-21.875;;;-22.062;6.312;93.625
20130;2.16;10.32;1.21;-0.275988915;1.511891465;0.350147955;0.91;10.11;-0.79;0.75;12.125;-12.75;;;-15.813;20.062;86.625
20179;3.27;9.92;1.08;-0.193085775;1.229375019;0.479965544;1.54;9.41;-0.14;-1.312;1.812;-13.188;;;-11.063;27.5;70.438
20227;2.31;9.05;-0.08;-0.634863515;1.000300554;0.297788077;1.4;9.69;-0.59;-1.75;-8.563;-13.563;;;-36.375;17.062;57.313
20279;1.98;8.7;-0.07;-0.722129978;0.650135146;0.37196457;1.78;9.4;0.04;0.312;-12.375;-13.125;;;-41.375;21.312;37.25
20330;1.99;7.98;-0.85;-0.865037537;0.430869432;0.230174022;2.04;9.5;-0.26;0.812;-15.625;-13.813;;;-49.563;13.188;24.687
20379;1.67;8.28;-1.29;-0.727592859;0.131981798;0.162542513;1.87;9.64;-0.54;2.563;-15.188;-15.563;;;-41.688;9.313;7.562
20428;1.35;8.51;-1.26;-0.424324448;-0.078539816;0.147270882;1.42;9.97;-0.6;2.688;-5.875;-13.625;;;-24.312;8.438;-4.5
20480;1.48;8.51;-1.95;-0.086166905;-0.190904114;0.103620198;1.83;9.77;-0.6;2.938;-4.25;-14.25;;;-4.937;5.937;-10.938
20530;1.94;8.77;-2.03;0.15271631;-0.234537345;-0.039269908;1.55;9.66;-0.37;3.438;3.313;-12.375;;;8.75;-2.25;-13.438
20579;2.19;9.43;-2.72;0.09817477;-0.198531202;-0.242164434;1.99;9.85;-0.09;4.5;10.688;-16.125;;;5.625;-13.875;-11.375
20628;2.56;9.36;-3.1;0.159261294;-0.078539816;-0.165806279;1.83;9.63;0.01;2.625;3.063;-15.875;;;9.125;-9.5;-4.5
20680;3.4;8.4;-2.9;0.126536371;-0.087266463;0.017453293;2.17;9.63;-0.11;0.625;-13.188;-17.75;;;7.25;1;-5
20730;2.93;8.63;-2.18;-0.004363323;-0.219265714;-0.050178216;2.66;9.21;0.27;-1.187;-13.313;-16.437;;;-0.25;-2.875;-12.563
20778;2.41;8.76;-1.46;-0.34360297;-0.322885912;-0.076358155;2.53;9.61;0.08;0.062;-16.562;-20.5;;;-19.687;-4.375;-18.5
20827;1.51;9.29;-0.88;-0.021816616;-0.533407526;-0.09817477;2.88;9.72;-0.69;0.375;-20.812;-20.937;;;-1.25;-5.625;-30.562
20880;2.41;11.3;-0.92;0.007627089;-0.789761487;-0.253072742;3.18;9.96;-0.88;0.187;-9.938;-18.375;;;0.437;-14.5;-45.25
20930;3.15;10.72;-2.42;-1.136645675;-0.323968016;0.070895274;3.11;9.27;0.27;1.25;-5.25;-14.125;;;-65.125;4.062;-18.562
20978;1.87;9.48;-2.28;0.154897971;-0.071994832;0.097075213;3.13;9.29;0.3;3.188;-16;-12.313;;;8.875;5.562;-4.125
21027;1.46;9.3;-0.15;-0.514872129;-0.18107791;0.047996554;3.24;9.26;-0.02;1;-23.437;-9.125;;;-29.5;2.75;-10.375
21080;2.18;9.47;-0.78;-0.307614281;-0.137444679;0.15271631;3.19;9.38;0.14;0.937;-20.375;-8.188;;;-17.625;8.75;-7.875
21129;2.21;9.56;-0.31;-0.215984495;-0.266162711;0.063268185;3.47;9.38;0.16;1.312;-19;-4.625;;;-12.375;3.625;-15.25
21178;0.88;9.22;-0.38;-0.025080381;-0.169087498;0.137444679;3.44;9.27;0.69;1.312;-19.562;-3.938;;;-1.437;7.875;-9.688
21229;2.19;9.34;-0.57;0.277071019;-0.295606415;0.09817477;2.97;9.3;0.47;-0.937;-27.25;-0.937;;;15.875;5.625;-16.937
21279;3.3;9.15;0.17;0.027262043;-0.381790774;0.056723201;3.06;9.41;0.2;-2.563;-31.125;3.938;;;1.562;3.25;-21.875
21329;2.22;9.47;0.21;-0.09817477;-0.570513226;0.043633231;2.21;9.75;0.21;-3.938;-34;9.5;;;-5.625;2.5;-32.688
21378;1.17;9.65;0.15;-0.109083078;-0.595593607;-0.030543262;1.49;9.95;0.23;-8.063;-41.188;25.75;;;-6.25;-1.75;-34.125
21429;1.51;9.46;0.69;0.220347818;-0.572694887;0.027262043;0.87;9.91;0.19;-8.688;-48.125;42.313;;;12.625;1.562;-32.813
21480;1.76;9.31;1;0.370882466;-0.594511503;-0.001082104;0.08;10.26;0.79;-6.625;-27.625;74;;;21.25;-0.062;-34.063
21529;2.87;9.36;1.82;0.050178216;-0.596693165;-0.04145157;0.25;9.88;1.47;0.687;-34;108.438;;;2.875;-2.375;-34.188
21578;1.98;9.56;1.68;0.201812421;-0.508327145;-0.042551127;1.93;11.09;-1.7;-13.063;-44.625;96.688;;;11.563;-2.438;-29.125
21628;2.04;9.69;1.48;0.604320254;-0.330513;0.050178216;1.98;11.28;-1.69;-26.75;27.187;84.688;;;34.625;2.875;-18.937
21679;3.48;9.79;1.27;0.813759764;-0.122173048;0.123255152;1.56;9.9;-0.75;-26.687;98;75.625;;;46.625;7.062;-7
21729;3.51;9.14;1.58;0.429787328;-0.026179939;0.172351264;0.9;10.01;0.44;-27.812;93.188;56.313;;;24.625;9.875;-1.5
21778;2.27;8.91;1.71;0.229074464;-0.025080381;0.103620198;0.27;8.77;1.66;-34.188;73.688;39.563;;;13.125;5.937;-1.437
21828;2.49;9.23;2.08;0.24108233;-0.179995806;0.004363323;-0.51;8.96;1.59;-28.687;48.188;28.875;;;13.813;0.25;-10.313
21880;2.24;9.35;1.82;0.22252948;-0.182177467;-0.049096112;-1.12;9.1;0.76;-21.562;5.562;17.812;;;12.75;-2.813;-10.438
21929;2.76;9.37;1.92;0.224711141;-0.245445653;-0.031625366;-1.38;8.6;-0.69;-14;-0.062;15.188;;;12.875;-1.812;-14.063
21977;2.45;9.4;1.9;0.082903139;-0.187622895;-0.016353735;-1.92;8.51;-1.13;-6.375;8.688;-1.437;;;4.75;-0.937;-10.75
22028;2.39;9.3;1.4;0.196349541;-0.147270882;0.067631509;-2.26;8.28;-0.75;1.437;-0.875;-19.375;;;11.25;3.875;-8.438
22079;2.04;9.07;1.8;0.322885912;-0.179995806;0.057822758;-2.68;9.85;-0.94;5.687;26.687;-25.125;;;18.5;3.313;-10.313
22129;2.01;9.03;2.04;0.381790774;-0.15817919;0.006544985;-3.07;9.71;-0.05;-5.062;21.687;-14.75;;;21.875;0.375;-9.063
22178;2.01;8.96;2.12;0.755954459;-0.177814144;-0.044732789;-2.83;9.56;-0.3;-5.125;5.5;-3.688;;;43.313;-2.563;-10.188
22229;2.97;9.13;2.04;0.775589413;-0.162542513;-0.064367743;-1.13;8.5;-0.06;-1.312;12.188;-19.5;;;44.438;-3.688;-9.313
22279;4;8.75;2.4;0.482147206;-0.283616003;-0.040369466;0.5;10.1;1.99;19.687;-15.25;-59.688;;;27.625;-2.313;-16.25
22329;2.69;8.98;2.08;0.294524311;-0.274889357;0.011990412;-1.84;12.44;-1.31;9.438;45.563;-61;;;16.875;0.687;-15.75
22378;2;10.12;3.08;0.383972435;-0.090530228;0.020717058;-2.9;10.56;-1.07;-11.313;-23.875;-17.687;;;22;1.187;-5.187
22430;1.19;9.97;2.28;0.498500941;0.150534648;0.017453293;1.38;9.15;0.8;7.937;24.187;-40.438;;;28.562;1;8.625
22479;0.82;10.24;1.47;0.75267324;0.481047648;0.021816616;1.54;9.09;-0.75;-8.625;-17.125;-40.25;;;43.125;1.25;27.562
22528;0.11;10.45;-0.1;0.610865238;1.147553983;-0.146171325;1.56;9.78;-1.84;-3.5;5.812;-46.313;;;35;-8.375;65.75
22578;0.81;10.5;0.39;0.559604918;1.8958639;-0.224711141;2.74;9.4;-0.33;0.937;42.25;-33.813;;;32.063;-12.875;108.625
22630;4.33;10.71;2.89;0.101438536;1.759518779;0.266162711;2.12;10.13;-0.54;-0.562;15.438;-38.375;;;5.812;15.25;100.813
22679;2.98;11.21;1.74;-1.074477047;1.442078294;0.514872129;2.12;10.19;-0.88;-3.563;-9.375;-24.75;;;-61.563;29.5;82.625
22728;2.1;10.11;0.65;-1.162825614;1.332995216;0.538870407;1.88;9.49;-0.23;-7.187;-19.875;-19.062;;;-66.625;30.875;76.375
22779;0.94;10.4;0.92;-1.154098968;1.084285798;0.640326396;2.59;9.28;-0.37;-5.375;-38.563;-21.25;;;-66.125;36.688;62.125
22830;2.07;8.93;0.37;-1.334094774;0.937032369;0.61850978;2.14;9.54;-1.14;-2.5;-24.812;-20.812;;;-76.438;35.438;53.688
22879;1.49;8.16;-0.27;-1.490074849;0.692686274;0.447240621;1.91;9.65;-0.73;0.187;-24.812;-20.312;;;-85.375;25.625;39.688
22929;0.89;8.14;-0.79;-1.244646649;0.387236201;0.316340927;1.94;9.79;-0.6;2;-16.937;-21;;;-71.313;18.125;22.187
22978;0.13;7.27;-1.36;-0.617410223;0.026179939;0.215984495;2.25;9.63;-0.62;1.5;-21.562;-20;;;-35.375;12.375;1.5
23030;0.56;7.09;-1.56;-0.197449098;-0.245445653;-0.02289872;2.03;9.38;-0.39;1.562;-10.938;-19.5;;;-11.313;-1.312;-14.063
23079;2.89;8.32;-2.49;0.0283616;-0.527962099;-0.282516446;2.25;9.35;-0.61;1.937;-11.625;-21.062;;;1.625;-16.187;-30.25
23129;2.66;9.74;-4.04;-0.154897971;-0.607601472;-0.213802833;2.07;9.48;-0.67;2.063;-9.938;-22.562;;;-8.875;-12.25;-34.813
23178;2.59;10.14;-4.04;0.195267437;-0.497418837;-0.106901417;2.88;9.12;-0.11;2.125;-27.625;-22.75;;;11.188;-6.125;-28.5
23229;2.23;9.65;-2.47;-0.305432619;-0.283616003;0.013089969;2.89;9.58;-0.68;5.187;-31.437;-22.062;;;-17.5;0.75;-16.25
23279;0.26;10.78;-0.7;-0.255254403;-0.522499218;-0.049096112;3.45;10.55;-1.25;7.5;-22.75;-20.062;;;-14.625;-2.813;-29.937
23329;4.5;10.87;-2.6;-0.77122609;-0.694867935;-0.001082104;2.13;9.98;-0.05;4.812;-16.062;-13.125;;;-44.188;-0.062;-39.813
23379;2.06;10.64;-2.67;-0.090530228;-0.521417114;0.19963076;2.16;10.94;-0.52;1.187;-28.937;0.062;;;-5.187;11.438;-29.875
23429;-0.22;8.01;0.51;-0.273807253;-0.70141292;0.176714587;1.26;10.33;0.5;-6.25;-30.687;22;;;-15.688;10.125;-40.188
23479;2.44;9.79;-0.08;0.22252948;-0.789761487;0.038187804;0.62;10.17;0.76;-9.25;-46.75;39.438;;;12.75;2.188;-45.25
23529;2.2;9.13;1.34;0.358874601;-0.79958769;0.114528506;0.51;10.11;1.47;-9.438;-38.813;79.125;;;20.562;6.562;-45.813
23579;1.16;9.57;1.12;0.157079633;-0.668687996;0.093811447;1.85;10.07;-0.75;-4.187;-32.875;117.875;;;9;5.375;-38.313
23629;1.64;9.5;0.89;0.871582522;-0.493055514;0.058904862;3.34;11.17;-1.55;-26.312;4.312;90.625;;;49.938;3.375;-28.25
23680;3.65;9.34;1.88;1.043933785;-0.472321002;0.097075213;1.66;10.69;0.84;-23.625;56.875;90.75;;;59.813;5.562;-27.062
23729;2.37;9.22;1.33;0.689405055;-0.387236201;0.085084801;1.29;10.69;-0.32;-27.875;45.938;76.125;;;39.5;4.875;-22.187
23779;2.74;9.23;1.31;0.793042706;-0.457049371;0.089448124;0.99;9.4;-1.18;-30.375;66.5;65.5;;;45.438;5.125;-26.187
23829;2.7;9.14;1.39;0.687223393;-0.428687771;0.004363323;0.45;8.91;-0.2;-18.875;104;55.375;;;39.375;0.25;-24.562
23880;2.5;9.13;1.57;0.354511278;-0.398144509;-0.039269908;0.06;8.18;1.93;-19.25;72.938;40.125;;;20.312;-2.25;-22.812
23929;2.34;9.27;1.7;0.305432619;-0.437414417;-0.081803582;-0.36;7.86;1.19;-15.188;5.562;23.062;;;17.5;-4.687;-25.062
23980;1.84;9.22;1.82;0.262898945;-0.469057236;-0.124354709;-1.01;7.78;-0.93;-7.687;-19.125;1.812;;;15.063;-7.125;-26.875
24029;2.19;9.05;2.1;0.176714587;-0.487592633;-0.131981798;-2.1;8.06;-1.39;5.875;-3;-19.937;;;10.125;-7.562;-27.937
24080;2.26;9.11;2.36;0.09817477;-0.56178658;-0.147270882;-3.55;10.33;-1.97;5.5;47.625;-31.875;;;5.625;-8.438;-32.188
24129;2.01;9.36;1.62;0.453785606;-0.446141063;-0.095993109;-4.76;10.23;-0.54;-3.375;16.625;-18.375;;;26;-5.5;-25.562
24180;2.44;9.04;2.21;0.894481242;-0.174532925;0.061086524;-2.75;9.21;0.98;-3.438;23.125;-17;;;51.25;3.5;-10
24229;2.89;8.69;2.05;0.860674214;-0.107983521;0.099256875;1.5;7.56;2.33;1.375;1.687;-58.375;;;49.313;5.687;-6.187
24280;3.48;9.95;1.71;0.351247512;-0.078539816;0.062186081;-3.17;14.37;-3.07;13.75;-3.625;-85.375;;;20.125;3.563;-4.5
24329;3.02;11.43;2.21;0.130899694;0.234537345;0.038187804;-1.23;9.29;0.41;-11.313;20.937;-9.063;;;7.5;2.188;13.438
24379;-0.6;11.83;-0.18;-0.081803582;0.862855876;0.049096112;2.95;7.73;0.66;-2.5;-47.5;-67;;;-4.687;2.813;49.438
24429;-0.8;9.82;-0.45;0.53014376;1.943860454;-0.112346844;1.7;9.74;-2.8;-3.188;-13.5;-34.188;;;30.375;-6.437;111.375
24480;2.44;11.04;2.2;0.79412481;2.368184902;0.368700804;3.53;9.53;-1.71;11.563;9.938;-45.688;;;45.5;21.125;135.687
24529;4.53;12.87;3.31;-0.030543262;1.967858732;0.766862767;1.25;10.84;-0.08;-2.5;48.438;-33.813;;;-1.75;43.938;112.75
24579;2.96;9.66;1.36;-1.69188727;1.674433978;0.507227587;0.65;10.03;0.78;-8.313;-30.75;-30;;;-96.938;29.062;95.938
24629;1.47;9.81;0.25;-1.359175155;1.27300825;0.452686048;1.91;9.43;-0.37;-12.625;-76.625;-25.312;;;-77.875;25.937;72.938
24679;2.33;8.06;0.4;-1.493356068;0.971938954;0.608683577;2.5;9.28;-1.66;-2.188;-58.125;-26.312;;;-85.563;34.875;55.688
24729;1.45;7.45;0.11;-1.746428809;0.731956182;0.314159265;2.83;9.38;-1.11;4;-12.938;-31.687;;;-100.063;18;41.938
24779;-0.34;6.93;-0.78;-1.217367153;0.416697359;0.202894526;1.72;9.49;0.11;2.125;-8.625;-29.437;;;-69.75;11.625;23.875
24830;-0.12;6.18;-0.99;-0.306514723;-0.070895274;0.207257849;2.38;9.69;-0.23;3.375;-30.625;-28.687;;;-17.562;11.875;-4.062
24879;0.96;6.34;-1.96;0.223629037;-0.585784857;-0.162542513;1.62;9.57;-0.61;-0.187;-13.875;-21.562;;;12.813;-9.313;-33.563
24929;2.99;10.56;-4.15;-0.392699082;-0.935932811;-0.57159533;1.59;9.4;-0.97;0.687;-19.75;-27;;;-22.5;-32.75;-53.625
24979;3.62;11.52;-6.55;-0.239982772;-0.537770849;-0.105801859;2.16;9.44;-1.42;3.438;-28.812;-17.687;;;-13.75;-6.062;-30.812
25030;1.34;8.98;-2.62;-0.294524311;-0.157079633;0.193085775;2.5;9.86;-0.99;5.375;-30.437;-13.75;;;-16.875;11.063;-9
25079;-1.9;9.92;0.47;0.24108233;-0.725411197;0.089448124;1.88;11.33;-1.25;6.312;-22.75;-12.438;;;13.813;5.125;-41.563
25129;2.61;10.97;-2.61;-1.382091328;-1.037388801;-0.080721478;0.53;10.7;-0.87;10.688;-12.688;3.375;;;-79.188;-4.625;-59.438
25179;2.26;10.26;-1.41;0.870482964;-0.753772797;0.176714587;1.08;11.27;-1.25;0.687;-15.625;26.5;;;49.875;10.125;-43.188
25230;1.06;7.52;0.82;0.419961125;-0.846484687;0.167987941;-1.25;10.98;3.67;-2.5;-2.438;69.5;;;24.062;9.625;-48.5
25279;4.66;8.73;1.3;0.56178658;-0.712321228;0.110165182;0.45;9.55;2.62;9.938;-63.938;137.562;;;32.188;6.312;-40.813
25329;2.88;8.97;2.42;-0.223629037;-0.826849733;-0.070895274;3.84;11.92;-1.26;-36.375;-74.25;119.063;;;-12.813;-4.062;-47.375
25379;2.04;9.59;1.45;0.109083078;-0.634863515;-0.018535397;3.86;12.64;-1.09;-49.25;57.75;109.125;;;6.25;-1.062;-36.375
25430;1.86;9.54;1.47;0.855211333;-0.434150651;0.11126474;3.06;11.48;-0.48;-42.313;102.813;106.875;;;49;6.375;-24.875
25479;3.05;9.17;1.75;1.079922475;-0.291243092;0.226892803;0.83;8.38;-0.28;-35.938;100.688;80.313;;;61.875;13;-16.687
25529;2.36;8.97;1.7;0.607601472;-0.308696385;0.113446401;1.21;7.61;1.2;-25.375;110.938;38.125;;;34.813;6.5;-17.687
25579;1.91;9.36;1.39;0.391599524;-0.410152374;-0.062186081;-0.02;7.52;2.66;-12.313;80.875;30.062;;;22.437;-3.563;-23.5
25630;2.45;9.37;1.03;0.566149903;-0.493055514;-0.15817919;-1.2;6.94;1.07;-18.125;-31.812;9.688;;;32.438;-9.063;-28.25
25679;2.6;9.39;1.09;0.496319279;-0.554142038;-0.197449098;-2.12;7.92;-2.17;-5.812;-56.438;-15.375;;;28.437;-11.313;-31.75
25729;3.49;9.16;1.59;0.052359878;-0.621773546;-0.178896248;-3.75;9.56;-2.8;11.563;7.312;-40.813;;;3;-10.25;-35.625
25779;2.4;9.46;1.2;-0.050178216;-0.570513226;-0.057822758;-5.3;10.72;-0.86;4.812;55.25;-37.625;;;-2.875;-3.313;-32.688
25830;1.61;9.05;1.53;0.704676685;-0.330513;0.042551127;-4.47;10.25;-0.52;3.5;-4.937;-23.375;;;40.375;2.438;-18.937
25879;3.45;9.06;1.34;0.998118893;-0.205076187;0.115628063;-0.82;6.79;1.58;-1.437;7.937;-31;;;57.188;6.625;-11.75
25929;3.78;9.44;1.38;0.713403332;-0.129800136;0.167987941;2.08;11.49;3.29;18.625;-24.687;-95.938;;;40.875;9.625;-7.437
25980;3.24;11.4;1.49;0.51159091;0.128718032;0.184359129;-5.78;12.79;-0.1;5.125;139.687;-38.188;;;29.312;10.563;7.375
26030;1.95;12.43;0.53;0.106901417;0.734137843;0.242164434;5.05;8.25;1.34;-13.625;-17.375;-13.813;;;6.125;13.875;42.063
26079;-0.79;12.16;-1.99;-0.316340927;1.947141673;0.021816616;2.4;8.64;-0.96;-6.25;-28.562;-47.5;;;-18.125;1.25;111.563
26128;2.13;11.46;2.06;0.368700804;2.454369261;0.351247512;4.05;8.92;-2.87;2.25;14.25;-38.063;;;21.125;20.125;140.625
26180;3.77;13.34;3.29;-0.172351264;2.152217861;0.635963073;0.25;10.23;0.16;1.937;23.25;-37.625;;;-9.875;36.438;123.313
26230;2.42;10;1.84;-1.221730476;1.840240257;0.709040009;0.29;9.72;1.04;-7.562;-33.375;-28.125;;;-70;40.625;105.438
26279;2.57;9.15;0.69;-1.396263402;1.387536755;0.582503638;2.12;9.13;-1.43;-8.375;-83.375;-24.75;;;-80;33.375;79.5
26328;2.72;7.37;0.47;-1.534807638;1.034107582;0.589048623;2.07;9.32;-1.7;-2;-51.375;-26.25;;;-87.938;33.75;59.25
26380;0.26;6.76;0.02;-1.876228946;0.542134172;0.166905836;1.99;9.28;-0.56;4.687;-16.937;-29.812;;;-107.5;9.563;31.062
26429;-0.47;6.35;-0.91;-0.713403332;-0.004363323;0.161442956;1.88;9.34;-0.47;7.937;-7.25;-35.75;;;-40.875;9.25;-0.25
26479;-0.17;5.63;-1.36;0.150534648;-0.541052068;0.007627089;1.12;9.91;-0.62;9.5;-4.125;-37.438;;;8.625;0.437;-31
26528;2.43;7.45;-3.06;0.376327893;-1.05047877;-0.645771823;0.75;9.88;-0.98;3.875;0.875;-30.875;;;21.562;-37;-60.188
26579;4.03;13.1;-7.07;-0.387236201;-1.299188189;-0.478865987;1.42;9.88;-0.94;2.688;-13.5;-34.563;;;-22.187;-27.437;-74.438
26629;3.87;10.45;-6.03;0.011990412;-0.377427451;0.011990412;2.08;9.96;-1.13;2.25;-30.25;-23.375;;;0.687;0.687;-21.625
26679;1;8.03;-1.12;-0.287979327;-0.628318531;0.188722452;2.11;10.06;-0.29;-3.125;-52.125;-11.063;;;-16.5;10.813;-36
26728;4.31;11.65;-0.88;-0.126536371;-1.057023755;0.00980875;0.69;10.21;-0.85;1.562;-48.875;-1.187;;;-7.25;0.562;-60.563
26779;0.54;11.34;-2.76;-1.178097245;-0.542134172;0.330513;-0.13;12.25;-1.66;4.812;-43.75;31.437;;;-67.5;18.937;-31.062
26829;-2.34;7.35;2.42;0.475602221;-0.534507083;0.419961125;-1.2;11.65;2.48;-4.375;-23.562;75.875;;;27.25;24.062;-30.625
26879;4.49;9.87;0.69;0.760317782;-0.904307445;0.161442956;0.91;10.08;1.05;4.5;-46.313;139.75;;;43.563;9.25;-51.813
26928;3.25;9.44;2.65;-0.04691445;-0.785398163;-0.044732789;3.85;12.74;-1.85;-41.813;-79.563;106.813;;;-2.688;-2.563;-45
26979;0.65;9.92;1.07;0.691586716;-0.747227813;0.170169602;2.63;11.19;-0.82;-40.813;71;104.813;;;39.625;9.75;-42.813
27029;3.28;9.18;2.06;1.9242255;-0.598874826;0.148352986;1.32;10.3;0.09;-31.937;102.813;93.875;;;110.25;8.5;-34.313
27079;3.22;8.69;2.85;1.103920752;-0.632681854;0.020717058;1.2;8.3;-1.31;-38.25;100.563;68.438;;;63.25;1.187;-36.25
27128;1.63;9.22;0.97;0.620691442;-0.687223393;-0.119991386;1.49;7.62;-0.42;-27.375;141.687;36.125;;;35.563;-6.875;-39.375
27179;3.1;9.38;1.62;0.930487384;-0.68832295;-0.160360852;0.23;6.79;2.71;-24.25;85.063;14.438;;;53.313;-9.188;-39.438
27228;2.16;9.26;1.06;0.765763209;-0.533407526;-0.142907559;-0.34;6.26;2.13;-23.625;-22.312;-18.062;;;43.875;-8.188;-30.562
27278;3.68;8.91;1.16;0.509409249;-0.508327145;-0.189804556;-2.13;8.37;0.08;4;-21.312;-35.688;;;29.187;-10.875;-29.125
27329;3.45;8.45;2.29;-0.196349541;-0.685041731;-0.259617726;-4.45;11.48;-2.31;5.187;51.125;-19.687;;;-11.25;-14.875;-39.25
27379;1.65;9.34;1.79;0.373064128;-0.573776992;-0.147270882;-6.39;10.29;-0.87;-12.5;31.625;0.812;;;21.375;-8.438;-32.875
27428;1.29;9.46;1.88;0.917397415;-0.245445653;0.017453293;-3.52;7.83;0.63;-5.812;6.062;-13.938;;;52.563;1;-14.063
27478;4.79;10.67;0.18;0.935932811;-0.004363323;0.097075213;1.48;9.05;2.06;1.5;4;-82.063;;;53.625;5.562;-0.25
27529;3.1;13.19;-0.65;0.401425728;0.748309917;0.285797665;-4.92;16.59;-5.16;13.813;126.688;-71.75;;;23;16.375;42.875
27579;-0.06;13.84;-2.5;-0.170169602;2.474004215;0.002181662;2.09;7.3;1.12;-16.625;-52.75;-27.812;;;-9.75;0.125;141.75
27628;1.83;11.85;2.45;0.661043454;2.877611604;0.43196899;4.78;7.87;-1.28;7.125;18.187;-79.438;;;37.875;24.75;164.875
27678;4.77;13.74;3.11;-0.223629037;2.023499828;0.974120615;1.36;10.64;-4.85;-9.938;16.5;-43.813;;;-12.813;55.813;115.938
27729;2;9.12;2.62;-1.73333884;1.845685684;0.665406777;0.94;9.73;2.08;-10.188;-16.312;-49.938;;;-99.313;38.125;105.75
27778;1.11;9.12;0.64;-1.84460358;1.466076572;0.59995693;1.48;8.88;1.9;-12;-101.25;-39.563;;;-105.688;34.375;84
27828;1.86;7.23;1.17;-1.474803218;1.166106833;0.650135146;3.44;9.78;-2.62;-0.5;-89.5;-42.125;;;-84.5;37.25;66.813
27878;0.7;6.43;1.04;-2.040953121;0.467957679;0.097075213;2.54;9.25;-1.71;-0.562;-37.125;-39.563;;;-116.938;5.562;26.812
27929;-1.1;6.16;0.38;-1.04501589;-0.081803582;0.057822758;2.23;9.43;0.07;3.813;-25.812;-39.563;;;-59.875;3.313;-4.687
27979;-0.89;5.07;-1.79;0.379609112;-0.629418088;-0.032724923;1.87;9.74;-0.41;4.125;-30.625;-35.875;;;21.75;-1.875;-36.063
28028;2.68;6.55;-3.06;-0.213802833;-1.112647398;-0.678496747;0.33;9.46;-1.65;-1.437;-27.375;-32.688;;;-12.25;-38.875;-63.75
28078;5.07;15.61;-8.36;-0.450504387;-0.826849733;-0.116710167;1.99;9.38;-0.8;3.313;-44.188;-26.812;;;-25.812;-6.687;-47.375
28129;1.23;11.07;-4.9;-0.389417863;0.275988915;0.419961125;2.24;11.5;-2.51;9.813;-42.188;-17.937;;;-22.312;24.062;15.813
28179;-1.78;10.18;0.06;0.100356432;-0.521417114;0.24108233;0.42;12.15;-2.01;5.687;-24.437;-2.125;;;5.75;13.813;-29.875
28228;4.71;11.72;-3.24;-1.78459916;-0.955567765;0.076358155;-1.19;11.74;-0.76;6.312;-19.562;25.625;;;-102.25;4.375;-54.75
28278;-0.82;8.22;2.23;1.290461542;-0.608683577;0.469057236;-2.01;13.16;1.84;-1.437;-15.75;94.313;;;73.938;26.875;-34.875
28330;1.34;8.37;2.82;0.198531202;-1.197732199;0.097075213;1.21;10.45;0.07;0.437;-65.563;172.812;;;11.375;5.562;-68.625
28378;6.07;10.71;2.95;0.347966293;-0.832312614;-0.151634205;5.33;14.78;-2.02;-77.5;-81.188;119.625;;;19.937;-8.688;-47.688
28428;0.53;9.46;0.71;0.790861044;-1.175915584;0.063268185;3.38;11.49;-1.73;-60.938;107.188;123.688;;;45.313;3.625;-67.375
28478;2.09;8.78;1.75;2.178397799;-0.976302277;-0.025080381;2.53;10.98;-0.89;-45.375;156.125;118.5;;;124.813;-1.437;-55.938
28530;2.77;8.89;2.04;1.135563571;-0.826849733;-0.178896248;2.23;7.34;-0.09;-42.938;128.687;80.438;;;65.063;-10.25;-47.375
28578;2;9.38;1.1;0.640326396;-0.747227813;-0.176714587;2.76;5.96;1.76;-10.625;157.812;46.813;;;36.688;-10.125;-42.813
28627;2.64;9.23;1.92;0.649053042;-0.821404306;-0.337057985;0.98;5.34;2.51;-8.5;30.687;0;;;37.188;-19.312;-47.063
28680;2.19;9.21;0.68;0.332694662;-0.842121364;-0.309795942;-1.9;6.38;0.21;-11.188;-81.25;-45;;;19.062;-17.75;-48.25
28730;3.35;9.01;1.29;0.18654079;-0.70141292;-0.179995806;-5.28;11.55;-1.81;17;-10.125;-74.188;;;10.688;-10.313;-40.188
28778;3.47;8.86;2.48;0.355610835;-0.452686048;-0.045814893;-8.5;13.81;-2.41;7.75;41.438;-28.937;;;20.375;-2.625;-25.937
28827;1.75;9.79;2.88;0.549778714;-0.254172299;0.127618475;-3.55;8.48;0.69;1.687;-7.562;-26.562;;;31.5;7.312;-14.563
28880;1.97;11.25;1.57;0.737401609;-0.062186081;0.016353735;4.34;9.25;2.14;0;-36.188;-97.313;;;42.25;0.937;-3.563
28930;2.55;13.1;0;0.830130952;0.53014376;0.04691445;-4.65;13.95;0.33;8.875;119.875;-50.313;;;47.563;2.688;30.375
28978;1.61;11.83;-0.38;0.077440259;1.821687407;0.089448124;3.81;7.74;0.24;-15;-85.625;-52.625;;;4.437;5.125;104.375
29027;0.86;10.9;0.23;-0.436332313;2.530727415;0.368700804;2.72;9.39;-3.7;2;-35.563;-67.75;;;-25;21.125;145
29080;2.88;13.26;2.91;-0.355610835;2.154399522;1.007927643;2.47;9.79;-2.87;1.312;4;-49;;;-20.375;57.75;123.438
29130;2.82;11.35;2.72;-1.577341311;2.195851092;0.896662903;0.05;10.14;0.63;-1.812;0.437;-43.563;;;-90.375;51.375;125.813
29179;1.83;11.3;1.54;-1.804234114;1.967858732;0.65996135;1.26;9.17;1.11;-8.563;-77.125;-42;;;-103.375;37.813;112.75
29229;2.33;7.96;1.57;-2.003864874;1.626437423;0.679596304;2.34;9.36;-2.12;-1.937;-80.25;-38.688;;;-114.813;38.938;93.188
29280;0.25;5.62;0.92;-2.00712864;1.072295386;0.089448124;2.66;9.08;-0.8;3.188;-41.938;-42.625;;;-115;5.125;61.438
29330;-1.78;4.59;1.01;-1.149735645;-0.00980875;-0.213802833;1.82;9.22;-0.24;6.687;-23.062;-37.813;;;-65.875;-12.25;-0.562
29378;-1.83;4.45;-1.19;0.414515697;-0.796306471;-0.18107791;2.41;9.51;-0.69;9.688;-14.375;-42.938;;;23.75;-10.375;-45.625
29430;2.3;8.59;-4.51;0.990474351;-1.752973794;-0.560687022;0.22;10.24;-1.23;5.187;-21.375;-45.875;;;56.75;-32.125;-100.438
29480;8.71;18.72;-9.72;-0.71122167;-0.989392246;-0.172351264;1.06;10.79;-1.9;11.688;-36.5;-26.875;;;-40.75;-9.875;-56.688
29530;-0.25;7.38;-3.47;-0.225810699;0.547597053;0.607601472;2.06;11.17;-2.56;8.063;-26.75;-3.563;;;-12.938;34.813;31.375
29578;-0.94;9.39;-0.55;1.029744259;-0.695950039;0.270526034;-0.67;11.64;-1.14;-2.313;-12.438;18.687;;;59;15.5;-39.875
29630;0.95;8.79;0.14;-1.18464223;0.081803582;0.703594581;-2.71;12.58;1.2;0.5;-8.875;75;;;-67.875;40.313;4.687
29680;-0.31;10.9;2.92;0.690504612;-0.85084801;-0.025080381;-1.09;11.25;2.55;9.688;-54.438;166.812;;;39.563;-1.437;-48.75
29730;5.17;10.51;1.94;0.710139566;-1.196650095;0.20943951;5.8;13.52;-2.02;-61.313;-84.063;130.875;;;40.688;12;-68.563
29778;2.04;9.2;1.51;0.443959402;-1.148653541;-0.082903139;3.95;13.09;-1.94;-64.688;77.313;120.25;;;25.437;-4.75;-65.813
29830;0.45;9.53;1.57;1.636246174;-1.210822169;0.019634954;2.63;10.82;-0.77;-56.938;133.437;122.25;;;93.75;1.125;-69.375
29880;3.13;9.01;2.18;1.960231643;-0.903207888;-0.102538094;2.41;7.52;-0.51;-54.688;139.375;99.938;;;112.313;-5.875;-51.75
29929;2.95;8.92;1.66;0.926124061;-0.929387827;-0.220347818;3.18;5.78;0.69;-19.312;167.562;68.063;;;53.063;-12.625;-53.25
29978;2.56;9.17;0.94;0.503963822;-0.897762461;-0.373064128;1.49;5.14;3.14;-11.688;89.438;14.188;;;28.875;-21.375;-51.438
30030;2.34;9.14;0.99;0.270526034;-0.925024504;-0.37196457;-1.51;5.47;1.83;-20.375;-65.813;-33.625;;;15.5;-21.312;-53
30080;3.11;9.14;0.99;0.254172299;-0.762499444;-0.183259571;-3.29;8.67;-1.33;2.75;-31.687;-68.438;;;14.563;-10.5;-43.688
30129;2.58;9.09;1.97;0.354511278;-0.622873103;-0.054541539;-8.17;14.33;-3.3;9.375;25.812;-57.5;;;20.312;-3.125;-35.688
30177;1.99;9.34;3.15;0.68286007;-0.354511278;0.055641097;-5.27;11.42;-1.86;3.375;-21.625;-18.25;;;39.125;3.188;-20.312
30230;2.97;11.68;1.93;0.750491578;-0.174532925;0.170169602;0.87;7.75;3.78;1.375;11.875;-71.625;;;43;9.75;-10
30280;3.45;12.61;-0.38;0.821404306;0.314159265;0.09817477;-2.04;14.77;-0.5;19.062;106.688;-101.875;;;47.063;5.625;18
30329;1.64;12.49;0.15;0.245445653;1.792243702;0.25089108;0.12;8.53;-0.4;-20.375;-87.063;-43.125;;;14.063;14.375;102.688
30377;0.57;11.47;-0.41;-0.507227587;2.637628832;0.215984495;5.7;7.01;-1.22;3.938;-65.188;-68;;;-29.062;12.375;151.125
30430;2.98;13.52;3.23;-0.032724923;2.328914994;1.075559152;2.69;10.45;-3.95;4.687;22;-56.938;;;-1.875;61.625;133.437
30480;3.34;12.45;3.67;-1.554442592;2.147854537;0.96211275;0.15;10.11;0.76;0.187;-12.188;-44.25;;;-89.063;55.125;123.063
30528;1.97;10.26;1.79;-2.045316444;1.944960012;0.633781411;0.05;9.4;1.3;-17.875;-82.438;-37.438;;;-117.188;36.313;111.438
30577;2.53;7.3;1.52;-1.800970349;1.571895884;0.718866212;3.18;8.86;-0.9;-1.312;-90.75;-46.188;;;-103.188;41.188;90.063
30630;0.69;5.99;1.2;-2.121674599;0.954485661;0.188722452;2.31;9.38;-2.22;0.437;-60.438;-43.375;;;-121.563;10.813;54.688
30680;-1.47;5.41;1.26;-1.709340563;0.126536371;-0.045814893;1.64;9.35;-0.33;6.937;-14.438;-43.563;;;-97.938;-2.625;7.25
30728;-2;4.9;-0.79;0.005445427;-0.586866961;-0.142907559;2.55;9.66;-0.28;7.437;-16.062;-42.188;;;0.312;-8.188;-33.625
30778;1.11;5.78;-2.85;0.699231258;-1.526080991;-0.63159975;1.15;9.61;-1.06;4;-26.687;-49.313;;;40.063;-36.188;-87.438
30830;5.32;17.64;-8.82;-0.142907559;-1.520618111;-0.334876324;1.2;10.1;-1.01;4.625;-34.188;-33.188;;;-8.188;-19.187;-87.125
30880;3.15;10.64;-5.01;-0.990474351;0.500682603;0.401425728;2.88;10.99;-2.53;10.688;-41;-15.688;;;-56.75;23;28.687
30928;-1.6;9.51;-0.84;0.182177467;-0.512690468;0.293424754;-0.06;12.36;-1.24;-1.562;-33.938;4.375;;;10.438;16.812;-29.375
30980;4.63;11.52;-2.59;-1.68642439;-0.983929366;0.207257849;-2.13;12.06;-0.01;-5.812;-38.063;40.375;;;-96.625;11.875;-56.375
31030;-1.33;10.31;0.96;0.845402583;-1.198831757;0.281434342;-2.09;10.91;3.84;-1;-45.688;138.875;;;48.438;16.125;-68.688
31080;2.86;8.55;2.8;0.491955956;-1.069014167;0.123255152;5.47;12.28;-3.2;-32.25;-88.75;168.062;;;28.187;7.062;-61.25
31128;4.53;9.07;3.03;0.271625591;-0.880309168;-0.137444679;4.28;14.06;-2.58;-70.688;-5.625;118.313;;;15.563;-7.875;-50.438
31180;-0.14;9.39;1.05;0.954485661;-1.09193034;0.042551127;2.67;12.65;-0.44;-60.5;124.063;124.063;;;54.688;2.438;-62.563
31230;2.64;9.01;1.52;2.207841504;-0.866119641;0.005445427;2.27;8.71;-0.11;-51.188;150.625;119;;;126.5;0.312;-49.625
31279;3.34;9.15;1.47;1.23155668;-0.82248641;-0.126536371;3.07;6.69;-0.49;-38.813;144.25;82.063;;;70.563;-7.25;-47.125
31328;2.89;9.28;0.94;0.464693913;-0.78103484;-0.207257849;2.39;5.18;2.4;-7.25;148.687;34.063;;;26.625;-11.875;-44.75
31380;1.39;9.36;1.33;0.416697359;-0.817040983;-0.257436065;-0.31;4.55;3.03;-19.437;-3.438;-15.563;;;23.875;-14.75;-46.813
31430;1.79;9.23;1.12;0.526862541;-0.84103926;-0.274889357;-1.79;7.16;-1.06;-9.75;-58.563;-56.375;;;30.187;-15.75;-48.188
31479;2.94;9.28;1.44;0.327249235;-0.753772797;-0.184359129;-6.74;13.02;-2.54;15.625;29.812;-77.688;;;18.75;-10.563;-43.188
31528;2.96;9.22;2.68;0.580321976;-0.474502664;0.039269908;-6;12.65;-1.61;8.5;22.875;-26;;;33.25;2.25;-27.187
31580;1.8;10.08;2.52;0.965393969;-0.185441233;0.185441233;-1.12;8.39;1.52;5.937;12.438;-49.375;;;55.313;10.625;-10.625
31630;3.28;11.18;-0.04;0.769044428;-0.036006142;0.06981317;2.06;11.39;-0.21;4.812;-21.625;-102.688;;;44.063;4;-2.063
31678;1.79;12.99;-0.34;0.709040009;0.751591136;0.174532925;-1.79;8.95;1.09;-9.563;34.375;-43.938;;;40.625;10;43.063
31727;0.26;11.51;-1.57;0.143989663;2.158762845;0.054541539;5.36;8.47;-0.31;-0.437;-58.188;-59.438;;;8.25;3.125;123.688
31780;3.61;11.55;3.77;0.331612558;2.610349336;0.625054765;2.61;10.49;-3.53;5.437;-4.687;-57.063;;;19;35.813;149.562
31830;3.37;13.19;2.73;-1.090830782;2.03549024;0.986111027;1;10.86;-1.21;4.187;-1.25;-54.813;;;-62.5;56.5;116.625
31878;1.05;10.49;2.64;-2.236203104;2.075859706;0.700313362;-0.83;9.63;1.74;-12.563;-35.313;-34.125;;;-128.125;40.125;118.938
31928;0.73;10.02;0.84;-1.794425364;1.943860454;0.608683577;2.24;8.79;0.12;-8.5;-93.813;-36.188;;;-102.813;34.875;111.375
31980;1.96;6.83;1.48;-1.577341311;1.630800746;0.61850978;2.88;9.22;-2.23;-2.125;-84.563;-43.813;;;-90.375;35.438;93.438
32030;0.7;5.39;1.24;-1.915498854;0.999200997;0.078539816;2.17;9.17;-0.98;5.375;-22.437;-39.813;;;-109.75;4.5;57.25
32078;-1.29;4.71;0.62;-1.086467459;-0.008726646;-0.179995806;2.11;9.56;-0.21;5.312;-14.375;-42.375;;;-62.25;-10.313;-0.5
32127;-0.64;4.56;-2.13;0.633781411;-0.862855876;-0.07962192;1.79;9.46;-0.27;5.562;-3.875;-39.25;;;36.313;-4.562;-49.438
32180;4.65;11.41;-6.03;0.211621172;-1.706059344;-0.400326171;1.52;9.74;-1.18;1.937;-20.5;-36.625;;;12.125;-22.937;-97.75
32230;4.88;13.39;-6.95;-0.346884189;-1.174833479;0.127618475;2.23;11.02;-0.83;4.062;-40.688;-22.937;;;-19.875;7.312;-67.313
32278;0.46;11.24;-2.85;-0.22799236;-0.464693913;0.299969739;1.78;11.13;-1.82;4.375;-42.5;-3.563;;;-13.063;17.187;-26.625
32328;3.33;9.51;-3.09;-0.714502889;-0.734137843;0.369782909;-0.33;10.95;-1.59;-2.063;-16.375;10.875;;;-40.938;21.187;-42.063
32380;-3.98;3.47;2.8;0.20943951;-0.48322931;0.525780437;-2.59;12.16;1.56;-5;-13.5;58.938;;;12;30.125;-27.687
32429;3.29;12.07;1.26;0.244346095;-0.629418088;-0.06000442;-1.6;11;2.36;10.938;-58.563;147.437;;;14;-3.438;-36.063
32478;2.84;9.46;1.78;0.36215582;-0.880309168;0.052359878;5.02;12.81;-3.53;-49;-85.125;134.812;;;20.75;3;-50.438
32529;2.96;9.81;1.22;0.866119641;-1.061387078;-0.010908308;3.31;13.02;-1.36;-65.063;64.938;114.75;;;49.625;-0.625;-60.813
32580;1.25;9.72;2.3;1.208640507;-1.326450232;-0.013089969;2.17;12.25;-1.01;-45.688;128.125;126.125;;;69.25;-0.75;-76
32629;1.02;9.05;2.1;1.809696995;-1.250092077;-0.198531202;2.28;9.09;-1.18;-48.438;128.75;116.188;;;103.688;-11.375;-71.625
32677;2.39;9.13;1.55;1.115928617;-1.007927643;-0.319604693;3.37;6.01;0.14;-18.812;147.875;84.313;;;63.938;-18.312;-57.75
32729;2.45;9.12;1.28;0.772308194;-0.9806656;-0.296705973;1.69;4.38;2.06;-4.875;77.25;14.875;;;44.25;-17;-56.188
32780;1.73;9.46;1.15;0.546497495;-0.72431164;-0.268344372;-1.09;4.97;1.18;-20.75;-52.313;-40;;;31.312;-15.375;-41.5
32829;2.27;9.32;1.33;0.284698108;-0.725411197;-0.205076187;-2.45;7.73;-1.28;-10.375;-30.5;-74.375;;;16.312;-11.75;-41.563
32877;2.65;9.35;2.31;0.465776017;-0.619591884;-0.04691445;-7.64;14.07;-2.32;17.562;34;-73.313;;;26.687;-2.688;-35.5
32930;2.56;10.26;2.37;0.584685299;-0.344702527;0.086166905;-4.69;10.72;0.26;3.438;-29.875;-37.5;;;33.5;4.937;-19.75
32980;2.39;11.42;1.11;0.769044428;-0.042551127;0.176714587;1.5;8.31;3.82;4.5;-12.625;-79.5;;;44.063;10.125;-2.438
33028;3.32;11.47;-0.25;0.895580799;0.308696385;0.141808002;-3.46;14.33;-0.86;11.563;85.5;-103.625;;;51.313;8.125;17.687
33078;1.79;11.98;0.23;0.271625591;1.623156204;0.27925268;0.82;8.53;-0.22;-18.75;-80.688;-40.375;;;15.563;16;93
33130;0.1;11.22;0.25;-0.681777966;2.595077705;0.136345121;3.64;8.71;-2.57;2.938;-66.563;-64.438;;;-39.063;7.812;148.687
33179;2.2;13.46;3.21;0.354511278;2.37909321;1.136645675;2.8;10;-3.76;3.875;14.563;-52.438;;;20.312;65.125;136.312
33228;3.24;12.23;3.27;-0.991573908;2.09549466;1.06356874;0.6;10.06;-0.27;3;-15.438;-47.563;;;-56.813;60.938;120.063
33278;2.71;11.18;2.31;-2.003864874;1.971139951;0.705776243;-0.03;9.59;1.85;-16.062;-46.375;-38.75;;;-114.813;40.438;112.938
33330;1.75;7.58;1.57;-1.983130363;1.718067209;0.722129978;2.73;9.23;-1.15;0.375;-104.625;-43.938;;;-113.625;41.375;98.438
33380;0.68;5.36;1.17;-2.046398548;1.240283326;0.261799388;3.09;9.17;-2.41;0.375;-55.188;-44.438;;;-117.25;15;71.063
33428;-1.11;4.25;1.33;-1.653699466;0.22799236;-0.051277773;1.52;9.14;-0.27;5.312;-20.687;-45.313;;;-94.75;-2.938;13.063
33477;-2.06;4.35;-0.82;-0.086166905;-0.580321976;-0.007627089;2.12;9.36;-0.17;9.375;-10.063;-44.563;;;-4.937;-0.437;-33.25
33530;2.41;7.86;-4.73;0.691586716;-1.219548815;-0.404689494;0.71;10.39;-0.62;7.437;-19.062;-49.5;;;39.625;-23.187;-69.875
33579;6.47;16.52;-8.85;-0.766862767;-1.268644927;-0.361056262;1.4;10.11;-1.67;5.375;-46.063;-30.375;;;-43.938;-20.687;-72.688
33628;0.59;8.97;-4.2;-0.587966518;0.027262043;0.297788077;2.43;11.18;-1.87;6.875;-47.25;-10.313;;;-33.688;17.062;1.562
33678;-1.59;9.77;-1.88;0.080721478;-0.51159091;0.176714587;-0.61;11.68;-1.99;-0.937;-41;7.937;;;4.625;10.125;-29.312
33729;2.81;9.36;-1.31;-1.664607774;-0.558505361;0.367601247;-2.11;12.43;-0.96;1.937;-21.375;52.75;;;-95.375;21.062;-32
33779;-1.69;10.61;1.84;1.097375767;-1.027562597;0.205076187;-2.42;10.65;4.06;3.063;-31.312;146.562;;;62.875;11.75;-58.875
33828;3.23;9.22;2.51;0.894481242;-1.32426857;0.283616003;5.07;11.8;-2.85;-30.437;-81.375;162.125;;;51.25;16.25;-75.875
33878;4.15;8.7;3.41;0.43196899;-1.072295386;-0.184359129;3.91;13.68;-2.39;-73.313;25.375;110.5;;;24.75;-10.563;-61.438
33929;-0.2;9.15;1.56;0.97520272;-1.271908692;-0.019634954;2.73;12.68;0.1;-59.5;139.125;120.438;;;55.875;-1.125;-72.875
33979;2.09;9.02;1.47;2.332196213;-1.065750401;-0.039269908;2.41;9.15;-1.02;-52.313;153.75;117.563;;;133.625;-2.25;-61.063
34027;3.57;9.22;1.74;1.551161373;-0.86940086;-0.200712864;3.23;6.77;-0.21;-37.688;159.125;92.75;;;88.875;-11.5;-49.813
34078;3.03;9.22;0.61;0.448322725;-0.919579076;-0.218166156;2.45;4.84;2.19;-6.687;145.625;36.688;;;25.687;-12.5;-52.688
34130;1.43;9.08;1.27;0.365419585;-0.883572934;-0.333794219;0.42;4.51;3.53;-18.25;-9.563;-13.438;;;20.937;-19.125;-50.625
34179;2.42;9.11;1.39;0.704676685;-0.730856624;-0.196349541;-2.89;7.48;-0.41;-4.5;-82.813;-57.5;;;40.375;-11.25;-41.875
34228;3.7;9.12;2.15;0.461412694;-0.639226839;-0.125436813;-6.03;13.14;-2.71;17.687;19.875;-71.125;;;26.437;-7.187;-36.625
34279;2.62;8.58;2.35;0.412334036;-0.487592633;-0.005445427;-5.71;12.15;-2.01;-2.563;-0.375;-30.062;;;23.625;-0.312;-27.937
34330;2.32;9.83;3.42;0.542134172;-0.278170576;0.062186081;-0.56;8.97;3.43;7.75;44.813;-55.813;;;31.062;3.563;-15.938
34379;3;11.63;0.2;0.446141063;-0.200712864;0.051277773;1.02;11.96;-1.26;8.75;48;-105.188;;;25.562;2.938;-11.5
34427;1.84;13.3;0.34;0.397062405;0.827949291;0.256353961;-1.79;9.59;1.02;-17.062;-75.375;-37.813;;;22.75;14.688;47.438
34478;0.11;11.29;-1.03;-0.355610835;2.081305133;0.162542513;5.3;7.76;-2.05;-5;-105.125;-61.625;;;-20.375;9.313;119.25
34530;1.74;12.09;3.5;-0.09271189;2.637628832;0.575958653;2.05;9.76;-3.99;5.75;8;-56.938;;;-5.312;33;151.125
34579;4.01;13.69;3.61;-0.518135895;2.238384766;1.012290966;1.1;10.39;-0.69;5.687;-12.188;-45.25;;;-29.687;58;128.25
34627;1.83;11.65;3.16;-2.026763594;2.160944507;0.842121364;-0.4;10.12;1.05;-12.938;-62.313;-35.313;;;-116.125;48.25;123.813
34679;1.26;9.4;0.99;-1.713703886;2.05404309;0.610865238;2.02;9;-0.05;-2.563;-93.688;-40.938;;;-98.188;35;117.688
34729;2.12;7.01;1.84;-1.649336143;1.553343034;0.558505361;2.5;9.19;-1.85;2.688;-68.375;-41.063;;;-94.5;32;89
34779;0.19;4.29;1.51;-1.862056872;0.839939703;0.075258597;1.78;8.94;-0.88;9.938;-23.937;-43.25;;;-106.688;4.312;48.125
34827;-1.39;4.06;0.04;-0.823585967;-0.224711141;-0.214902391;1.9;9.47;-0.18;13.938;-7.187;-48.188;;;-47.188;-12.313;-12.875
34880;0.87;4.95;-3.66;0.283616003;-0.847584245;-0.340339204;0.23;9.63;-1.01;8;-3.875;-49.5;;;16.25;-19.5;-48.563
34929;4.34;15.18;-8.45;0.424324448;-1.898045562;-0.520317557;0.75;10.16;-0.65;9.063;-19.875;-40.688;;;24.312;-29.812;-108.75
34979;4.64;13.65;-6.91;-0.475602221;-0.577058211;0.114528506;2.8;10.62;-2.06;7.75;-47.938;-21.625;;;-27.25;6.562;-33.063
35029;-0.69;8.89;-1.85;-0.464693913;0.029443704;0.291243092;1.08;12.91;-1.7;4.125;-33.75;-1.812;;;-26.625;16.687;1.687
35080;4.98;11.61;-4.01;-0.20943951;-1.10173909;0.281434342;-1.23;11.64;-1.42;2.625;-34.063;27.375;;;-12;16.125;-63.125
35129;-2.28;6.6;1.88;-0.32070425;-0.159261294;0.821404306;-2.14;12.4;0.67;-2.75;-3.563;86.5;;;-18.375;47.063;-9.125
35179;1.16;8.29;4.42;0.287979327;-0.886854153;-0.030543262;-0.74;11.4;3.03;-0.687;-47.813;172.312;;;16.5;-1.75;-50.813
35229;6.44;8.64;4.55;1.138827337;-0.851947568;0.090530228;5.59;14.66;-2.52;-75;-84.188;121.75;;;65.25;5.187;-48.813
35280;1.38;9.08;2.22;0.313059708;-1.066832505;-0.115628063;3.67;12.49;-1.68;-69.125;102.875;114.75;;;17.937;-6.625;-61.125
35329;0.5;9.62;1.37;1.508627699;-1.16174351;-0.026179939;2.54;11.78;-0.68;-56.875;144.187;119;;;86.438;-1.5;-66.563
35379;2.5;8.97;2.36;2.196933196;-1.028662155;-0.110165182;2.53;7.28;-0.16;-51.938;150.5;94.313;;;125.875;-6.312;-58.938
35429;3.1;8.89;1.37;1.32426857;-0.843220922;-0.218166156;3.45;5.74;0.93;-15.438;170.562;54.188;;;75.875;-12.5;-48.313
35480;2.44;9.09;1.6;0.512690468;-0.741764932;-0.26944393;1.59;4.92;3.53;-6.562;72.563;2.813;;;29.375;-15.438;-42.5
35528;1.32;9.18;0.62;0.383972435;-0.82248641;-0.299969739;-1.77;5.83;1.42;-17.5;-76.188;-39.5;;;22;-17.187;-47.125
35579;3.45;8.97;1.78;0.378509555;-0.699231258;-0.231256126;-4.06;10.27;-1.94;16.812;-14;-66.438;;;21.687;-13.25;-40.063
35629;3.17;9.43;2.14;0.339239647;-0.638144734;-0.094893551;-8.27;13.85;-2.87;7.062;31.5;-46.125;;;19.437;-5.437;-36.563
35680;2.21;9.68;1.91;0.628318531;-0.205076187;0.129800136;-4.15;9.48;0.03;0.937;-40.688;-34;;;36;7.437;-11.75
35728;2.99;11.92;0.91;0.661043454;-0.001082104;0.175632483;2.75;8.28;2.23;4.062;-15;-81;;;37.875;10.063;-0.062
35780;1.97;12.8;-0.97;0.623955208;0.466875575;0.106901417;-4.39;12.8;1.28;7;134.562;-57.438;;;35.75;6.125;26.75
35829;1.29;11.89;-0.5;0.265080607;1.858775653;0.173450821;4.71;7.81;1;-12.563;-77.688;-46.625;;;15.188;9.938;106.5
35880;1.27;11.81;1.87;-0.485410972;2.563452339;0.377427451;2.73;9.74;-4.56;7.812;-37.688;-69.375;;;-27.812;21.625;146.875
35928;2.8;14.04;2.94;0.147270882;2.207841504;1.067932063;2.27;10.29;-3.71;0.437;8.25;-49.313;;;8.438;61.188;126.5
35979;3.93;10.35;2.92;-1.071195828;2.097676321;0.940296135;-0.73;9.67;1.87;-5.75;-7.562;-40.563;;;-61.375;53.875;120.188
36029;2.16;9.61;1.73;-1.882773931;1.880592269;0.68286007;1.9;8.82;-0.06;-8.563;-88.063;-37;;;-107.875;39.125;107.75
36079;1.85;6.72;1.19;-1.752973794;1.432269544;0.634863515;2.65;8.87;-2.51;-0.687;-79.25;-38.188;;;-100.438;36.375;82.063
36128;0.17;5.53;1.13;-2.046398548;0.834494275;0.083985244;2.55;8.89;-0.92;5.812;-16.562;-41.5;;;-117.25;4.812;47.813
36179;-1.64;4.94;0.12;-1.315541924;0.040369466;-0.103620198;2.15;9.91;0.1;12.188;-10.375;-49.125;;;-75.375;-5.937;2.313
36229;-0.19;4.96;-2.53;-0.087266463;-0.542134172;-0.04691445;0.4;9.69;-1.07;7.687;-11.375;-48.875;;;-5;-2.688;-31.062
36279;3.34;9.95;-5.01;-0.077440259;-1.124655263;-0.555224142;1.85;9.95;-0.95;6.625;-23.625;-41.563;;;-4.437;-31.812;-64.438
36328;3.44;12.86;-7.62;-0.18107791;-1.21300383;-0.078539816;1.51;11.09;-1.67;2.813;-39.313;-29.562;;;-10.375;-4.5;-69.5
36379;1.72;9.3;-3.55;0.213802833;-0.549778714;0.327249235;1.06;10.58;-0.87;1.625;-54.25;-6.687;;;12.25;18.75;-31.5
36429;1.16;10.55;-1.93;-0.070895274;-0.697049597;0.049096112;-0.23;11.48;-2.31;3.313;-33.438;14.063;;;-4.062;2.813;-39.938
36479;-1.58;5.95;3.42;-1.391900078;-0.020717058;0.573776992;-1.5;12.28;-0.13;-1.75;-18.875;61.938;;;-79.75;32.875;-1.187
36528;-0.12;8.41;3.42;1.089748678;-0.777771075;0.321786354;-2.39;10.72;4.96;10.063;-38.188;158.187;;;62.438;18.437;-44.563
36579;4.64;10.14;2.63;0.376327893;-1.138827337;0.06981317;5.6;12.99;-2.34;-49.188;-124.813;140.562;;;21.562;4;-65.25
36629;2.64;9.06;2.09;0.131981798;-1.113746956;-0.066549404;3.74;12.26;-2.44;-67.375;21.562;117.375;;;7.562;-3.813;-63.813
36678;-0.26;9.36;1.98;1.817324084;-1.390817974;0.039269908;2.93;12.28;-1.06;-51.563;160.75;118.188;;;104.125;2.25;-79.688
36729;3.13;8.71;2.26;1.999501551;-1.125737368;-0.280334784;2.72;8.55;-1.23;-50.375;165;110.875;;;114.563;-16.062;-64.5
36779;2.83;9.19;1.6;0.97520272;-0.981747704;-0.244346095;3.39;5.35;0.59;-25.375;178.812;73.688;;;55.875;-14;-56.25
36829;1.68;9.57;0.98;0.666506335;-0.657779688;-0.102538094;1.79;4.64;2.79;-9.25;102.125;22.375;;;38.188;-5.875;-37.688
36878;1.44;8.69;1.62;0.789761487;-0.620691442;-0.183259571;-2.13;5.21;1.87;-34;-74.375;-28.312;;;45.25;-10.5;-35.563
36930;3.27;9.16;2.75;0.354511278;-0.700313362;-0.281434342;-1.68;9.72;-1.73;-9.563;-44.938;-67.563;;;20.312;-16.125;-40.125
36979;2.68;9.5;1.9;0.080721478;-0.727592859;-0.130899694;-8.06;14.43;-1.73;21.687;43.375;-72.688;;;4.625;-7.5;-41.688
37030;2.25;10.01;2.55;0.466875575;-0.311977604;0.122173048;-5.7;10.89;-0.89;-1.375;-35.875;-25.75;;;26.75;7;-17.875
37078;1.81;11.43;1.46;0.813759764;0.006544985;0.217084052;0.45;8.85;3.89;3.563;3.375;-77.438;;;46.625;12.438;0.375
37130;3.88;11.76;0.49;1.051560874;0.449422282;0.12107349;-2.53;15.61;-0.59;23.75;83.563;-88.313;;;60.25;6.937;25.75
37179;1.43;11.74;-0.77;0.194167879;1.400626725;0.221447375;1.7;7.44;-1.09;-27.562;-117.188;-53.875;;;11.125;12.688;80.25
37229;1.11;10.86;1.05;-0.602138592;2.604903909;0.231256126;3.78;8.24;-2.52;6.437;-50.313;-65.563;;;-34.5;13.25;149.25
37278;3.39;14.19;3.04;0.017453293;2.28091844;1.156280629;3.18;10.45;-3.73;11.625;36.688;-54.813;;;1;66.25;130.687
37330;3.62;11.74;3.22;-1.562069681;2.058406413;1.001382658;-0.48;10.27;0.57;-0.187;-12.125;-47.125;;;-89.5;57.375;117.938
37379;2.76;11.63;2.09;-1.918780073;1.947141673;0.733038286;0.44;9.4;1.21;-14.375;-67.5;-32.063;;;-109.938;42;111.563
37429;2.1;8;1.2;-1.998401994;1.611165792;0.621773546;3;8.86;-1.43;0.562;-98.063;-38.5;;;-114.5;35.625;92.313
37478;0.85;5.72;0.86;-2.062769736;0.931569488;0.056723201;2.74;9.16;-1.76;0.062;-54.438;-43.625;;;-118.188;3.25;53.375
37530;-1.22;4.79;0.73;-1.238101665;0.063268185;-0.126536371;1.5;9.01;-0.21;9.125;-11.875;-42.063;;;-70.938;-7.25;3.625
37579;-1.76;3.81;-0.99;-0.133081355;-0.402507832;-0.137444679;1.45;9.79;-0.52;7.25;-5.187;-43.25;;;-7.625;-7.875;-23.062
37629;1.58;6.4;-3.18;0.837758041;-1.726793855;-0.749409474;1.06;9.89;-0.57;5.375;-23.75;-46.313;;;48;-42.938;-98.938
37678;4.61;18.11;-9.72;-0.173450821;-1.676615639;-0.13416346;0.88;10.4;-1.83;9.438;-30.25;-38.438;;;-9.938;-7.687;-96.063
37729;4.35;10.61;-4.89;0.097075213;-0.053459435;0.525780437;1.91;11.45;-2.05;8.563;-40.313;-16.062;;;5.562;30.125;-3.063
37779;-0.77;8.74;-0.31;-0.007627089;-0.461412694;0.160360852;0.07;12.14;-1.74;-1.187;-30.125;9.875;;;-0.437;9.188;-26.437
37828;2.88;13.35;-2.77;-1.6220741;-0.52468088;0.465776017;-2.03;12.46;0.07;-3.25;-25.687;65.5;;;-92.938;26.687;-30.062
37878;-3.18;4.77;4.49;0.467957679;-0.656680131;0.161442956;-1.83;10.32;3.58;4.625;-45.625;162.562;;;26.812;9.25;-37.625
37929;6.02;9.87;1.23;0.681777966;-1.077740813;0.140725898;5.72;13.16;-2.87;-50.563;-100.75;148.312;;;39.063;8.063;-61.75
37979;2.14;8;2.75;0.215984495;-0.990474351;-0.102538094;3.96;12.77;-2.75;-62.438;21.937;117.875;;;12.375;-5.875;-56.75
38028;0.25;9.18;1.53;1.647154482;-1.025380936;0.02289872;2.78;12.09;-1.04;-51.875;147.812;121.063;;;94.375;1.312;-58.75
38080;3.21;8.73;2.32;2.200214415;-0.959931089;-0.057822758;1.99;7.9;-0.75;-44.688;146.812;114.375;;;126.063;-3.313;-55
38129;2.66;8.88;2.38;1.105020309;-0.887936257;-0.278170576;2.88;6.13;0.27;-24.25;162.062;66.688;;;63.313;-15.938;-50.875
38179;2.31;9.06;1.08;0.653416365;-0.860674214;-0.290160988;2.1;4.89;2.56;-5.687;133.875;22.375;;;37.438;-16.625;-49.313
38228;2.14;9.68;1.75;0.532325422;-0.842121364;-0.412334036;0.45;4.79;2.36;-15.25;25.75;-17.5;;;30.5;-23.625;-48.25
38279;3.52;9.82;0.66;0.445058959;-0.811578102;-0.244346095;-2.45;7.34;0;-13.625;-40.5;-56.813;;;25.5;-14;-46.5
38329;3.01;8.86;0.82;0.353429174;-0.507227587;0.015271631;-8.84;15.26;-2.02;23.5;23.437;-84.125;;;20.25;0.875;-29.062
38379;1.88;9.43;2.82;0.907571211;-0.296705973;0.061086524;-5.63;11.46;0.23;-1.5;-23.75;-9.375;;;52;3.5;-17
38428;2.5;11.39;1.43;0.883572934;-0.04145157;0.12107349;0.54;5.25;1.78;-14.813;-21.25;-43.563;;;50.625;6.937;-2.375
38479;3.27;11.19;0.05;0.843220922;0.465776017;0.113446401;-3.72;17.72;-2.52;15.75;17;-124.625;;;48.313;6.5;26.687
38529;1.49;12.41;0.68;0.099256875;1.834777376;0.287979327;0.91;7.35;0.8;-29.75;-41.688;-44.313;;;5.687;16.5;105.125
38579;-0.74;10.82;-0.21;-0.352329616;2.644173817;0.350147955;5.88;7.34;-0.04;9;-55.188;-76.313;;;-20.187;20.062;151.5
38628;2.73;13.68;2.85;0.527962099;2.204577738;1.147553983;2.22;10.69;-6.41;5.25;16.875;-53.25;;;30.25;65.75;126.313
38679;3.21;11.74;2.89;-1.162825614;2.050761871;0.927206165;0;10.56;0;4.625;0.312;-51.375;;;-66.625;53.125;117.5
38729;1.93;11.46;2.27;-2.21656815;1.833695272;0.691586716;0.4;9.52;1.64;-19.25;-26.312;-32.188;;;-127;39.625;105.063
38779;1.6;8.18;1.36;-1.963495408;1.509709803;0.671951762;2.85;9.43;-1.44;-1.437;-84.813;-39.688;;;-112.5;38.5;86.5
38829;1.42;5.74;1.01;-1.953686658;0.968657735;0.259617726;2.59;9.27;-1.72;-5.062;-52.063;-39.5;;;-111.938;14.875;55.5
38880;-0.95;4.84;1.28;-1.487893187;0.119991386;-0.006544985;2.49;9.02;-0.38;3.625;-25.187;-38.563;;;-85.25;-0.375;6.875
38928;-1.82;4.15;-0.83;0.174532925;-0.563968241;0.026179939;1.72;9.85;-0.07;8.125;-20.25;-45.375;;;10;1.5;-32.313
38979;1.53;6.28;-3.71;0.596693165;-1.321004804;-0.536688745;0.02;9.42;-0.71;3.625;-43.75;-40.625;;;34.188;-30.75;-75.688
39030;7.19;17.5;-9.67;-0.935932811;-1.599157927;-0.364337481;-0.1;10.53;-3.33;6.187;-69.375;-30.687;;;-53.625;-20.875;-91.625
39079;-1.38;10.32;-3.3;-0.412334036;-0.140725898;0.335975881;1.68;11.65;-2.87;6.812;-43.813;3.125;;;-23.625;19.25;-8.063
39128;0.81;8.4;-1.78;0.582503638;-0.779952736;0.475602221;-1.38;11.08;-1.39;1.437;-7.125;13.375;;;33.375;27.25;-44.688
39178;0.57;7.63;4.36;-0.183259571;0.406871155;1.052660432;-1.85;13.92;1.93;4.625;0.625;72.188;;;-10.5;60.313;23.312
39230;-1.92;8.36;5.07;0.775589413;-0.899944122;-0.172351264;0.86;11.63;1.38;9.5;-51.625;167.75;;;44.438;-9.875;-51.563
39279;7.47;12.14;3.05;0.270526034;-1.134464014;0.058904862;4.82;14.6;-1.43;-59.75;-84.625;112;;;15.5;3.375;-65
39328;0.98;8.44;1.28;0.123255152;-1.227193357;-0.115628063;3.57;12.04;-2.31;-55.125;52.5;117.25;;;7.062;-6.625;-70.313
39378;1.12;9.65;1.14;2.026763594;-1.113746956;-0.051277773;2.08;10.72;-1.14;-53.313;134.562;111.938;;;116.125;-2.938;-63.813
39430;3.38;8.62;1.91;1.624255762;-0.952304;-0.130899694;2.2;6.85;-1.47;-50.438;144.937;85.25;;;93.063;-7.5;-54.563
39479;3.47;9.45;0.4;0.818123087;-0.861756318;-0.226892803;2.28;6.2;0.87;-19.75;179.625;48.188;;;46.875;-13;-49.375
39528;1.57;9.19;0.87;0.668687996;-0.759218225;-0.190904114;0.89;4.75;4.14;-10.25;99.813;16;;;38.313;-10.938;-43.5
39578;2.46;8.97;1.16;1.015572185;-0.645771823;-0.148352986;-0.53;5.31;3.58;-19.375;-55.625;-39.5;;;58.188;-8.5;-37
39630;2.96;8.38;1.28;0.855211333;-0.619591884;-0.161442956;-3.82;10.14;-1.14;13.625;-76.875;-72.625;;;49;-9.25;-35.5
39679;4.35;8.61;2.97;0.497418837;-0.594511503;-0.142907559;-8.87;13.68;-4.55;6.125;87.938;-25;;;28.5;-8.188;-34.063
39728;2.32;9.96;1.97;0.707957904;-0.296705973;-0.007627089;-5.03;8.72;-0.26;-3.563;5.812;-4.875;;;40.563;-0.437;-17
39779;3.53;11.53;-0.44;0.973021058;0.061086524;0.052359878;3.42;6.52;3.71;1.062;-7.812;-91.063;;;55.75;3;3.5
39829;2.25;13.95;-1.14;0.580321976;1.2260938;0.322885912;-3.95;18.02;-2.56;12.75;144.062;-72.563;;;33.25;18.5;70.25
39879;0.12;13.21;-0.82;-0.138526783;2.677980844;0.224711141;4.66;4.78;2.55;-27.062;-115.125;-43.625;;;-7.937;12.875;153.437
39928;1.28;12.25;3.91;0.72977452;2.51871955;1.065750401;3.98;11.89;-5.94;18.437;24.937;-80;;;41.813;61.063;144.312
39979;3.29;12.77;2.91;-0.946841119;2.140209995;1.002482216;0.63;9.55;-3.15;-23.562;-45.938;-36;;;-54.25;57.438;122.625
40030;2.62;10.78;3.37;-2.234021443;1.938415027;0.654498469;-0.81;10.14;1.76;-17.312;-9.938;-38.188;;;-128;37.5;111.063
40079;1.74;8.3;1.84;-2.422726441;1.619892439;0.675232981;2.9;8.31;-0.21;-4.75;-126.188;-38.813;;;-138.812;38.688;92.813
40128;1;6.06;1.59;-1.948223778;1.082104136;0.308696385;2.17;9.23;-3.38;-6.187;-52.688;-38.563;;;-111.625;17.687;62
40179;-0.64;5.06;1.16;-1.659162347;0.166905836;0.191986218;2.42;9.39;-0.22;5.062;-25.937;-39.125;;;-95.063;11;9.563
40229;-1.47;4.48;-0.3;-0.082903139;-0.537770849;0.142907559;1.98;9.55;0.21;6.875;-19.187;-41.938;;;-4.75;8.188;-30.812
40278;0.63;5.27;-2.77;0.607601472;-1.081022032;-0.421060682;1.62;9.02;-0.53;2.938;-34.25;-42.563;;;34.813;-24.125;-61.938
40328;5.61;15.37;-8.51;-1.023199274;-2.060588075;-0.858492552;0.87;9.6;-1.6;6.75;-50.688;-36.438;;;-58.625;-49.188;-118.063
40380;2.63;11.96;-5.66;0.051277773;0.257436065;0.491955956;2.43;10.56;-2.32;4.812;-58.375;-14.688;;;2.938;28.187;14.75
40430;-1.95;8.85;-1.02;-0.872664626;-0.203994083;0.136345121;-0.38;12.55;-2.34;-4.437;-47.563;1.75;;;-50;7.812;-11.688
40479;3.29;14.53;-5.34;-2.60162269;-0.709040009;0.267262268;-1.64;13.16;-2.05;0.625;-30.875;49.313;;;-149.062;15.313;-40.625
40528;-5.94;4.32;3.67;1.219548815;-0.86940086;0.451603944;-2.95;12.04;4.95;7;-41.25;132.625;;;69.875;25.875;-49.813
40580;5.89;9.26;4.24;1.715885548;-1.41263459;0.251990637;4.69;11.18;-2.93;-24.5;-137.75;153.5;;;98.313;14.438;-80.938
40630;3.49;8.39;3.69;-0.445058959;-1.195550538;-0.225810699;3.68;14.14;-3.38;-55.813;-9.688;111.625;;;-25.5;-12.938;-68.5
40678;-1.71;9.02;0.84;1.214103388;-1.346085186;0.061086524;2.86;10.72;-1.43;-54.688;149.875;110.438;;;69.563;3.5;-77.125
40728;3.65;9.3;1.83;3.094678203;-1.085385355;-0.018535397;1.92;9;-0.98;-48.75;168.75;107.25;;;177.312;-1.062;-62.188
40780;4.14;9.34;1.56;1.51080936;-0.739583271;-0.176714587;2.99;7.47;-1.25;-45.5;185.562;68.438;;;86.563;-10.125;-42.375
40830;2.95;9.14;0.46;0.750491578;-0.654498469;-0.143989663;3.09;6.73;1.19;-16.187;207.625;41.625;;;43;-8.25;-37.5
40878;0.8;8.76;1.87;0.474502664;-0.728674963;-0.345784631;1.68;6;4.74;-21.125;52.563;12.688;;;27.187;-19.812;-41.75
40929;2.68;9.28;2.05;0.523598776;-0.942477796;-0.446141063;-1.2;6.45;3.54;-20.875;-57.875;-33.688;;;30;-25.562;-54
40980;3.46;9.32;0.62;0.197449098;-0.903207888;-0.253072742;-4.12;9.92;0.32;26.562;-6.625;-60.188;;;11.313;-14.5;-51.75
41030;3.29;8.66;2.27;0.315241369;-0.50178216;-0.018535397;-10.61;14.89;-2.2;13.063;37.688;-38.25;;;18.062;-1.062;-28.75
41079;0.91;10.52;3.04;0.881391272;-0.193085775;0.021816616;-4.81;7.57;-1.4;-13.188;-28.75;-10.438;;;50.5;1.25;-11.063
41129;3.66;11.52;0.05;0.824668072;0.177814144;0.067631509;4.33;6.78;4.37;0.687;-44.313;-87.688;;;47.25;3.875;10.188
41180;3.82;14.09;0.34;0.500682603;1.089748678;0.212720729;-4.63;14.97;-1.23;23.875;199.437;-74.75;;;28.687;12.188;62.438
41230;-0.03;12.06;-1.18;-0.63159975;2.394364841;0.200712864;5.32;4.89;3.45;-41.688;-148.812;-65.375;;;-36.188;11.5;137.187
41279;0.91;11.98;3.02;0.281434342;2.455451365;1.085385355;3.45;11.04;-7.14;12.875;-46.375;-80.938;;;16.125;62.188;140.687
41330;3.65;12.71;2.95;-0.791943148;2.112947952;1.189005553;0.7;9.49;-1.67;-15.438;-4.375;-54.125;;;-45.375;68.125;121.063
41380;1.92;11.43;2.78;-2.639810494;1.870783519;0.848666349;-1.41;10.28;1.31;-7.125;-31.25;-56;;;-151.25;48.625;107.188
41430;1.28;9.13;1.71;-2.480549199;1.911135531;0.685041731;1.39;8.72;0.66;-10.75;-110;-37.875;;;-142.125;39.25;109.5
41478;0.71;6.39;1.59;-1.977684935;1.496619834;0.382872878;3.13;9.36;-3.15;-1.187;-82.75;-45.813;;;-113.313;21.937;85.75
41530;-0.95;4.22;1.16;-1.746428809;0.607601472;-0.063268185;2.44;8.97;0.09;5.75;-19.125;-47.875;;;-100.063;-3.625;34.813
41580;-1.61;3.99;0.15;-0.412334036;-0.415597801;-0.164724175;2.37;9.45;0.29;4.687;-22.937;-46.875;;;-23.625;-9.438;-23.812
41630;0.53;4.07;-2.97;0.788679382;-1.118110279;-0.377427451;0.79;9.11;-0.86;6.875;-25.437;-50;;;45.188;-21.625;-64.063
41678;3.18;14.48;-8.39;0.097075213;-2.187124446;-0.581421534;1.02;10.82;-1.49;4.062;-57.438;-37.563;;;5.562;-33.313;-125.313
41730;3.3;13.49;-5.73;-1.038470905;0.003263766;0.411234478;2.35;11.7;-3.15;12.25;-44.688;-17.812;;;-59.5;23.562;0.187
41780;-2.76;7.32;-1.68;-0.058904862;-0.105801859;0.177814144;-1.42;12.74;-2.13;-3.438;-29.187;10.813;;;-3.375;10.188;-6.062
41829;4.99;14.64;-5.42;-2.331096656;-1.007927643;0.258535622;-3.25;13.23;0.81;-2;-25.375;79;;;-133.562;14.813;-57.75
41878;-2.31;6.7;2.87;0.998118893;-0.947940677;0.506145483;-1.52;10.9;3.76;8.5;-62.125;181.875;;;57.188;29;-54.313
41930;6.19;10.98;3.22;0.532325422;-1.406089605;0.030543262;6.4;15.6;-2.96;-78.813;-113.563;133.5;;;30.5;1.75;-80.563
41980;1.09;8.09;2.58;0.055641097;-1.271908692;-0.113446401;3.42;12.56;-1.14;-72.313;82.75;123.875;;;3.188;-6.5;-72.875
42029;-1.42;9.08;1.02;1.81624198;-1.359175155;0.043633231;2.77;11.96;-2.43;-68.563;149.812;122.375;;;104.063;2.5;-77.875
42078;3.07;9.05;2;2.881974927;-1.015572185;-0.058904862;2.84;7.18;-0.72;-56.625;178.062;110.188;;;165.125;-3.375;-58.188
42130;4.47;9.4;1.56;1.46389491;-0.836675937;-0.210539068;3.56;5.17;0.46;-23.812;189.312;64.688;;;83.875;-12.063;-47.938
42180;1.54;9.11;0.98;0.586866961;-0.782134398;-0.223629037;2.46;4;2.93;-5.312;136.062;11.938;;;33.625;-12.813;-44.813
42229;1.89;9.24;0.88;0.622873103;-0.945759015;-0.358874601;-1.44;5.4;3.17;-19.187;-29.25;-57.875;;;35.688;-20.562;-54.188
42277;3.39;9.53;0.56;0.638144734;-0.838857598;-0.249808976;-4.72;10.54;0.02;8.875;-45.125;-77.375;;;36.563;-14.313;-48.063
42330;3.88;8.71;2.92;0.427605667;-0.508327145;-0.102538094;-10.18;15.67;-1.04;15;70.688;-24;;;24.5;-5.875;-29.125
42380;1.3;10.66;2.18;0.843220922;-0.273807253;0.107983521;-3.48;7.2;0.35;-16.687;-76.25;-22.812;;;48.313;6.187;-15.688
42429;3.48;12.23;0.12;0.707957904;0.122173048;0.100356432;5.32;8.15;2.59;3.875;-21.375;-86.875;;;40.563;5.75;7
42478;2.57;12.88;-0.71;0.46033059;1.113746956;0.133081355;-5.02;18.74;-2.35;21.875;131.812;-87.563;;;26.375;7.625;63.813
42530;1.27;11.9;-0.37;-0.334876324;2.40745481;0.230174022;5.46;5.79;1.33;-36.375;-136.75;-56.125;;;-19.187;13.188;137.937
42580;0.84;13.08;3.04;-0.417779463;2.298371732;1.055924197;2.96;10.8;-5.64;17.312;-9.438;-77.938;;;-23.937;60.5;131.687
42628;2.86;13.11;2.8;-0.86393798;2.04858021;1.14319066;1.19;9.93;-3.71;-15.938;-55.438;-50.25;;;-49.5;65.5;117.375
42678;2.3;11.62;3.08;-2.093312998;2.006046536;0.861756318;0.08;9.95;2.09;-6.125;-30.562;-54.563;;;-119.938;49.375;114.938
42730;2.1;8.44;2.07;-2.201296519;1.82605073;0.699231258;2.34;8.31;0.01;-4.812;-113.063;-39.313;;;-126.125;40.063;104.625
42780;0.75;6;1.99;-2.196933196;1.359175155;0.337057985;2.87;9.41;-3.16;3.188;-85.063;-44.938;;;-125.875;19.312;77.875
42828;-0.83;4.8;1.71;-1.768245425;0.478865987;-0.045814893;2.37;9.04;-0.47;8.813;-18.062;-43.875;;;-101.313;-2.625;27.437
42878;-2.42;4.24;-0.72;-0.347966293;-0.48322931;-0.063268185;2.05;10.25;-0.41;10.188;-20.937;-46;;;-19.937;-3.625;-27.687
42930;0.7;5.15;-3.61;0.813759764;-1.354811832;-0.412334036;0.11;9.74;-0.01;6.687;-27.75;-48.313;;;46.625;-23.625;-77.625
42980;7.39;19.73;-10.19;0.207257849;-2.212204827;-0.605419811;1.25;10.63;-2.67;14.125;-57.75;-26.875;;;11.875;-34.688;-126.75
43028;2.23;10.22;-3.52;-0.539952511;0.032724923;0.642508058;1.6;11.5;-3.36;12.938;-34.5;-9.25;;;-30.937;36.813;1.875
43080;2.66;9.35;-2.22;0.6130469;-0.310878046;0.231256126;-2.52;12.19;-0.7;-0.437;3.438;20.562;;;35.125;13.25;-17.812
43130;-3.85;4.6;8.68;-1.2544554;0.367601247;0.746128255;-2.3;12.74;3.12;2.563;-16.437;120.438;;;-71.875;42.75;21.062
43179;0.84;8.94;3.39;1.126836925;-0.971938954;0.037088247;2.39;11.43;-0.4;-14.938;-77.063;173.812;;;64.563;2.125;-55.688
43228;5.05;11.1;2.78;0.109083078;-1.426806664;-0.038187804;5.06;15.11;-2.84;-77.938;-40.938;123.125;;;6.25;-2.188;-81.75
43280;-0.27;9.19;0.76;0.478865987;-1.419179575;-0.07962192;2.96;12.06;-0.32;-61.188;111.688;129.437;;;27.437;-4.562;-81.313
43330;1.02;9.2;1.61;2.311461701;-1.232638784;0.045814893;2.92;10.6;-1.84;-53.25;148.562;131.25;;;132.437;2.625;-70.625
43379;3.84;8.91;1.73;2.390001518;-0.961030646;-0.119991386;2.58;6.98;-0.57;-50.75;153.875;104.188;;;136.937;-6.875;-55.063
43428;3.41;9.07;1.02;0.947940677;-0.866119641;-0.223629037;3.15;4.65;1.48;-13.688;173.75;62.875;;;54.313;-12.813;-49.625
43480;0.39;9.05;1.02;0.559604918;-0.877027949;-0.321786354;0.62;3.76;3.75;-0.625;83.875;5.437;;;32.063;-18.437;-50.25
43530;2.41;9.27;1.59;0.958848984;-0.922842842;-0.427605667;-3.76;7.07;0.47;-12.875;-74.875;-48.063;;;54.938;-24.5;-52.875
43579;4.5;9.68;0.55;0.673051319;-0.657779688;-0.154897971;-5.76;11.68;-0.73;6.75;-7.187;-79.813;;;38.563;-8.875;-37.688
43628;4.1;9.18;2.61;0.637045177;-0.331612558;0.075258597;-8.34;14.39;-1.85;9.813;17.687;-61.188;;;36.5;4.312;-19
43680;2.11;11.34;0.55;0.485410972;-0.001082104;0.119991386;-0.07;6.47;1.95;-6.5;-15.188;-44.625;;;27.812;6.875;-0.062
43730;2.79;12.89;-1.18;0.392699082;0.529044203;0.097075213;2.01;14.94;-2.27;-1.937;-8.125;-130.812;;;22.5;5.562;30.312
43779;1.58;12.66;-1.06;-0.150534648;2.154399522;0.244346095;1.63;9.12;3.73;-26.437;-6.312;-31.937;;;-8.625;14;123.438
43827;1.62;11.92;4.18;-0.401425728;2.709623664;0.865037537;9.09;6.37;-0.81;-1;-92.75;-65.375;;;-23;49.563;155.25
43880;2.87;13.6;2.6;-0.712321228;1.989675347;1.217367153;0.85;10.88;-6.05;0.687;2.75;-58.625;;;-40.813;69.75;114
43930;2.55;10.58;2.84;-1.879510165;2.111848395;0.934850707;1.02;9.74;2.64;-2.438;-49;-55.063;;;-107.688;53.563;121
43978;1.64;9.37;2.4;-2.595077705;1.785698718;0.712321228;-0.2;9.09;1.89;-14.375;-83.188;-42.938;;;-148.687;40.813;102.313
44028;0.81;6.14;1.89;-2.308197936;1.540253065;0.51159091;3.28;9.37;-2.08;7.312;-124.438;-49.063;;;-132.25;29.312;88.25
44080;-0.27;4.1;2;-1.926407162;0.715584993;-0.148352986;2.05;9.05;-1.27;5.187;-38.688;-49.313;;;-110.375;-8.5;41
44130;-1.82;4.42;-0.07;-0.731956182;-0.330513;-0.242164434;1.76;9.91;-0.25;9.063;-5.062;-44.938;;;-41.938;-13.875;-18.937
44178;0.38;5.08;-3.62;0.886854153;-1.268644927;-0.291243092;-0.04;9.17;0.19;9.313;-14.813;-52.563;;;50.813;-16.687;-72.688
44227;5.74;18.07;-10.15;0.425424005;-2.278736778;-0.654498469;0.78;11.02;-1.61;10.563;-51.813;-31.875;;;24.375;-37.5;-130.562
44280;1.8;9.51;-4.09;-0.577058211;0.037088247;0.626136869;1.84;11.28;-3.34;14.875;-35.625;-9.5;;;-33.063;35.875;2.125
44330;-2.21;8.01;-0.35;0.417779463;-0.039269908;0.189804556;-2.06;12.69;-1.31;0.187;-8.625;18.687;;;23.937;10.875;-2.25
44378;3.24;11.05;-0.81;-2.131483349;0.233437787;0.341421308;-2.97;13.91;1.82;4.187;3.313;98;;;-122.125;19.562;13.375
44428;-3.75;8.89;4.87;1.71478599;-0.918479519;0.43196899;1.25;12.13;0.25;0.812;-53.5;179.25;;;98.25;24.75;-52.625
44479;6.03;11.18;2.81;0.954485661;-1.31445982;0.030543262;4.83;14.88;-2.04;-73.313;-57.125;126.688;;;54.688;1.75;-75.313
44530;1.63;9.31;0.81;0.317423031;-1.383173432;-0.176714587;3.19;12.41;-0.89;-62.375;89.938;133.562;;;18.187;-10.125;-79.25
44577;-0.42;8.7;1.1;2.160944507;-1.491174406;0.004363323;3.05;10.85;-1.5;-60.563;150.375;136.125;;;123.813;0.25;-85.438
44629;2.76;8.4;1.95;2.124938364;-1.115928617;-0.410152374;3.3;6.26;0.28;-53.938;165.75;109.125;;;121.75;-23.5;-63.938
44680;4.16;9.49;0.91;1.085385355;-0.928305723;-0.333794219;3.28;5.33;1.3;-15.688;179.625;73.063;;;62.188;-19.125;-53.188
44729;1.48;9.32;1.03;0.277071019;-0.749409474;-0.265080607;0.86;3.72;3.66;-4.687;86.188;9.5;;;15.875;-15.188;-42.938
44777;1.39;9.09;0.88;0.769044428;-0.800669794;-0.25089108;-2.36;4.79;0.99;-26.75;-99.063;-47.25;;;44.063;-14.375;-45.875
44829;3.53;9.4;0.89;0.521417114;-0.634863515;-0.194167879;-4.93;12.63;-1.59;9.125;-6.375;-102.438;;;29.875;-11.125;-36.375
44880;4.36;9.36;1.82;0.52468088;-0.439596079;0.007627089;-8.18;14.23;-1.92;17.437;-4.625;-90.813;;;30.062;0.437;-25.187
44929;2.23;11.65;0.64;0.438513975;-0.123255152;0.128718032;-0.17;8.34;2.36;-10.375;-12.75;-67.688;;;25.125;7.375;-7.062
44977;3.02;13.67;-1.27;0.506145483;0.340339204;0.038187804;-2.33;17.75;-1.83;23.375;70.188;-127.938;;;29;2.188;19.5
45029;1.64;12.8;-1.61;0.155997529;2.015855286;0.188722452;2.88;6.53;1.64;-26.062;-150.062;-42.188;;;8.938;10.813;115.5
45079;0.98;12.61;3.03;-0.687223393;2.729258618;0.617410223;6.9;8.94;-5.03;16.937;-47;-98.25;;;-39.375;35.375;156.375
45129;3.63;14.37;2.73;-0.12107349;2.167489491;1.058105859;0.92;11.03;-5.24;-11.188;19.187;-52.375;;;-6.937;60.625;124.188
45178;2.45;10.52;4;-1.850049007;2.171852815;1.072295386;0.28;9.51;2.95;5.5;-35.813;-54.125;;;-106;61.438;124.438
45229;0.9;9.05;1.56;-2.755438557;1.964594966;0.560687022;0.82;9.23;1.21;-14.25;-100;-43.063;;;-157.875;32.125;112.563
45279;1.17;6.47;1.47;-2.026763594;1.574077546;0.602138592;3.37;9.7;-3.09;9.75;-89.563;-47.125;;;-116.125;34.5;90.188
45328;-0.48;4.19;1.51;-1.847867346;0.881391272;0.017453293;1.91;8.91;-0.67;5.187;-28.625;-53.625;;;-105.875;1;50.5
45378;-2.45;4.55;0.07;-1.115928617;-0.140725898;-0.265080607;1.63;9.69;0.18;14.625;-3.813;-46.5;;;-63.938;-15.188;-8.063
45429;1.28;6.23;-4.87;0.867219199;-0.86393798;-0.169087498;1.29;9.81;-0.28;11.813;-13.938;-52.688;;;49.688;-9.688;-49.5
45479;4.16;12.81;-7.51;0.141808002;-1.564251342;-0.283616003;1.65;10.68;-1.13;8.063;-47.188;-30.562;;;8.125;-16.25;-89.625
45528;3.89;11.49;-6.87;-0.307614281;-0.847584245;0.058904862;1.2;11.6;-0.94;8.188;-57.625;-16;;;-17.625;3.375;-48.563
45577;1.91;9.5;-2.82;-0.665406777;-0.446141063;0.361056262;0.32;10.97;-2.88;11.438;-52.438;5.25;;;-38.125;20.687;-25.562
45629;5.13;11.34;-5.39;0.025080381;-1.280635339;0.412334036;-2.93;11.92;0.18;-1.375;16.75;50.875;;;1.437;23.625;-73.375
45679;-4.7;11.06;3.3;-0.837758041;-0.870482964;0.270526034;-3.13;11.09;3.9;11.75;-48.438;179.375;;;-48;15.5;-49.875
45728;5.53;9.41;3.3;1.243547092;-1.071195828;0.103620198;6.25;13.12;-2.49;-57.375;-106.938;132.937;;;71.25;5.937;-61.375
45778;5.37;9.58;3.01;0.534507083;-1.131200248;-0.010908308;3.18;12.97;-0.93;-74.063;25.437;111.563;;;30.625;-0.625;-64.813
45829;-1.15;9.76;1.29;0.382872878;-1.375546343;-0.184359129;2.46;13.01;0.07;-63.25;111.938;125;;;21.937;-10.563;-78.813
45879;1.87;9.12;1.8;2.310379597;-1.303551512;-0.025080381;2.38;9.12;-1.57;-66.938;140.937;109.875;;;132.375;-1.437;-74.688
45928;3.23;8.85;2.12;1.832595715;-1.077740813;-0.308696385;3.52;6.07;0.44;-41.625;160.812;94.625;;;105;-17.687;-61.75
45977;3.18;9.07;0.91;0.846484687;-1.026480493;-0.328331339;2.79;4.77;2.03;-5.687;151.562;52.563;;;48.5;-18.812;-58.813
46029;1.09;9.31;1.48;0.539952511;-0.945759015;-0.34360297;0.14;4.73;2.66;-18.125;10.75;-17.125;;;30.937;-19.687;-54.188
46079;2.29;9.21;1.37;0.542134172;-0.905389549;-0.309795942;-3.87;7.64;-0.97;-13.188;-49.125;-66;;;31.062;-17.75;-51.875
46128;3.5;9.46;1.41;0.654498469;-0.652316808;-0.094893551;-7.84;13.71;-2.19;16.562;40.5;-87.688;;;37.5;-5.437;-37.375
46178;2.73;10.47;2.4;0.640326396;-0.334876324;0.12107349;-5.65;11.43;-0.03;0.062;-31.812;-41.875;;;36.688;6.937;-19.187
46229;3.03;12.77;-0.07;0.798488133;0.045814893;0.147270882;2.52;7.74;4.59;-1.562;17.5;-69.25;;;45.75;8.438;2.625
46278;2.73;13.12;0.03;0.647953485;0.825767629;0.176714587;-3.96;17.53;-0.87;20.312;104.313;-96.313;;;37.125;10.125;47.313
46327;1.23;11.92;-1.03;-0.162542513;2.130401245;0.225810699;4.26;7.25;-0.46;-30.437;-118;-49.25;;;-9.313;12.938;122.063
46378;1.77;12.1;3.76;-0.339239647;2.514356227;0.943577354;4.06;9.44;-4.32;13.813;-33.375;-80.688;;;-19.437;54.063;144.062
46429;2.51;13.41;2.75;-0.879209611;2.122756703;1.099557429;1.5;10.27;-3.27;-6.937;-20.5;-59.125;;;-50.375;63;121.625
46478;2.59;11.31;2.74;-1.912235088;2.124938364;0.817040983;0.15;9.99;1.7;-1.187;-46.188;-50.125;;;-109.563;46.813;121.75
46527;2.09;8.58;1.74;-2.167489491;1.923143396;0.741764932;1.62;8.48;0.56;-11.75;-117.938;-37.813;;;-124.188;42.5;110.188
46578;0.99;5.37;2;-2.289645086;1.55226093;0.434150651;3.13;9.54;-3.06;6.562;-89;-51.688;;;-131.187;24.875;88.938
46630;-0.66;4.15;1.39;-2.07694181;0.455967267;-0.137444679;1.94;9.31;-0.69;4.187;-22.937;-43.063;;;-119;-7.875;26.125
46678;-2.43;4.36;-0.22;-0.584685299;-0.557405803;-0.118891829;2.64;10.17;0.19;8.438;-19.437;-46.75;;;-33.5;-6.812;-31.937
46727;1.31;6.1;-4.17;0.494137618;-1.304633616;-0.188722452;-0.22;10.06;-0.5;5.312;-28.312;-45.375;;;28.312;-10.813;-74.75
46780;5.43;17.24;-8.55;0.163624617;-1.832595715;-0.304333062;1.19;11.19;-1.92;13.5;-51.5;-27.875;;;9.375;-17.437;-105
46830;1.74;10.07;-4.37;-0.662143012;0.070895274;0.366519143;1.28;10.78;-2.57;11;-33.125;-7.125;;;-37.938;21;4.062
46878;-1.77;9.42;0.06;0.463594356;-0.565050345;0.253072742;-1.38;12.72;-1.82;-0.687;-17.375;21.75;;;26.562;14.5;-32.375
46927;3.59;10.73;-0.3;-0.467957679;-0.893399138;0.147270882;-3.88;12;1.66;5.562;-14.188;94.75;;;-26.812;8.438;-51.188
46980;-1.69;5.6;5.93;1.185741787;-0.68832295;0.259617726;1.89;13.11;-1.78;-15.5;-58.688;162.25;;;67.938;14.875;-39.438
47029;5.63;10.22;4.06;0.499600498;-1.294824865;-0.045814893;5.35;15.71;-2.9;-80.438;-9.438;122.625;;;28.625;-2.625;-74.188
47078;1.03;8.87;1.33;0.319604693;-1.20319508;-0.179995806;2.83;11.93;-0.95;-58.75;107.438;130.75;;;18.312;-10.313;-68.938
47127;-0.15;9.72;1.2;2.08240469;-1.347184743;-0.001082104;2.87;10.15;-2.34;-54.813;129.75;129.187;;;119.313;-0.062;-77.188
47179;3.63;8.91;2.13;2.049679767;-0.978483939;-0.214902391;3.53;6.61;-0.55;-44.125;167.812;102.688;;;117.438;-12.313;-56.063
47229;3.37;9.12;0.99;0.902125784;-0.932669046;-0.217084052;3.5;5.31;1.48;-9.375;186.437;57.563;;;51.688;-12.438;-53.438
47278;0.73;9.24;2.13;0.526862541;-0.968657735;-0.363237924;1.26;4.22;3.11;-13.125;52.125;-2.75;;;30.187;-20.812;-55.5
47328;0.92;9.49;0.37;0.749409474;-0.929387827;-0.333794219;-2.89;5.94;0.07;-20.312;-78.438;-49.938;;;42.938;-19.125;-53.25
47380;3.3;9.37;1.89;0.697049597;-0.757036563;-0.148352986;-5.9;12.24;-1.24;16.562;26.812;-82.938;;;39.938;-8.5;-43.375
47429;3.42;9.86;2.36;0.649053042;-0.560687022;-0.102538094;-9.02;15.36;-0.93;4.562;26.437;-21.875;;;37.188;-5.875;-32.125
47478;1.79;11.44;1.7;0.766862767;-0.085084801;0.001082104;-2.09;5.98;2.28;-9;-8.063;-35.625;;;43.938;0.062;-4.875
47529;3.6;12.36;-0.71;0.629418088;0.287979327;0.133081355;3.76;11.06;-0.91;4.687;-41;-130.125;;;36.063;7.625;16.5
47580;1.24;12.22;-0.09;0.232355683;1.869683961;0.376327893;-1.43;13.01;-0.64;-18.312;-30.375;-48.125;;;13.313;21.562;107.125
47629;1.36;11.16;2.51;-0.330513;2.727076956;0.645771823;7.08;6.63;0.15;-3.25;-66.813;-63;;;-18.937;37;156.25
47678;1.2;14.11;2.37;-0.515954233;2.097676321;1.401726282;2.12;11.19;-4.98;11.688;36.375;-68.75;;;-29.562;80.313;120.188
47729;1.57;11.92;2.96;-1.274090354;2.255838058;1.189005553;0.94;9.66;1.06;-4.875;-50.563;-56.875;;;-73;68.125;129.25
47780;2.9;9.76;2.71;-1.980948701;2.090031779;0.926124061;-0.52;9.67;0.97;-11.313;-62.875;-46.813;;;-113.5;53.063;119.75
47828;1.72;7.38;2.4;-2.597259366;1.57515965;0.873764183;2.44;9.58;-1.09;-0.687;-112.375;-48.625;;;-148.812;50.063;90.25
47878;0.17;5.19;1.98;-2.410736029;0.983929366;0.061086524;3.03;9.01;-2.16;0.187;-60.688;-45.563;;;-138.125;3.5;56.375
47929;-1.3;4.22;1.38;-1.316641481;-0.116710167;-0.169087498;2.3;9.18;-0.18;6.375;-21.75;-43.375;;;-75.438;-9.688;-6.687
47979;-1.03;4.1;-1.99;-0.017453293;-0.901026226;-0.103620198;1.83;9.64;0.57;8.875;-31.25;-53.313;;;-1;-5.937;-51.625
48028;3.05;12.87;-7.81;0.341421308;-1.567532561;-0.493055514;0;9.64;-0.62;9;-49.375;-42.938;;;19.562;-28.25;-89.813
48077;4.48;16.07;-8.7;-1.137745233;-0.686141289;0.018535397;1.69;11.87;-3.39;15.5;-55.438;-21.875;;;-65.188;1.062;-39.313
48129;-0.1;7.07;-1.93;-0.457049371;0.290160988;0.489774295;0.11;11.64;-1.59;-0.375;-45.625;4.312;;;-26.187;28.062;16.625
48180;5.43;10.93;-5.07;0.775589413;-1.258818723;0.293424754;-2.55;12.68;-0.74;-4.437;-24;43.563;;;44.438;16.812;-72.125
48228;-3.26;12.27;1.25;-0.038187804;-1.242464988;0.654498469;-2.38;11.29;2.73;2.125;-48.375;159.5;;;-2.188;37.5;-71.188
48277;2.89;6.88;5.5;0.777771075;-1.064650844;-0.013089969;5.54;11.81;-2.62;-58.875;-83.813;140;;;44.563;-0.75;-61
48329;5.53;9.15;3.74;0.601056488;-1.225011695;-0.027262043;3.46;13.57;-0.88;-70.563;27.875;118;;;34.438;-1.562;-70.188
48379;-0.66;8.68;1;0.51159091;-1.355911389;-0.125436813;2.89;13.11;-0.48;-68.563;99.938;120.188;;;29.312;-7.187;-77.688
48429;2.1;8.99;1.75;2.431453088;-1.177015141;-0.031625366;2.98;9.09;-1.72;-64.375;143.25;119.625;;;139.312;-1.812;-67.438
48478;3.55;8.86;1.71;1.964594966;-0.914116196;-0.218166156;3.65;6.23;0;-41.938;166.375;84.188;;;112.563;-12.5;-52.375
48530;3.34;8.88;1.32;0.767944871;-0.887936257;-0.244346095;2.79;4.46;2.26;-5.687;155.562;49.25;;;44;-14;-50.875
48579;1.09;9.3;1.59;0.367601247;-0.945759015;-0.341421308;0.2;4.88;3.01;-12.688;37.938;-11.063;;;21.062;-19.562;-54.188
48629;1.43;9.63;0.36;0.634863515;-0.84103926;-0.214902391;-3.68;7.43;-0.29;-9.563;-53.625;-55.063;;;36.375;-12.313;-48.188
48679;3.7;8.77;2.03;0.833394718;-0.539952511;-0.036006142;-7.28;13.9;-2.06;27.625;43.25;-72.875;;;47.75;-2.063;-30.937
48730;2.51;10.22;2.73;0.731956182;-0.287979327;0.124354709;-5.32;11.33;-0.7;3.313;-24.812;-37.25;;;41.938;7.125;-16.5
48779;2.09;11.03;1;0.716684551;0.007627089;-0.004363323;1.46;5.52;2.61;-13.563;-0.062;-51.375;;;41.063;-0.25;0.437
48828;3.12;11.92;-0.24;0.38505454;0.527962099;0.044732789;1.07;12.82;-1.67;12.188;12.063;-130.062;;;22.062;2.563;30.25
48879;1.29;12.38;-1.67;-0.246527757;2.069314721;0.066549404;1.76;9.69;1.13;-24.5;-56.25;-48.75;;;-14.125;3.813;118.563
48930;3.38;11.74;3.97;-0.067631509;2.520901212;0.845402583;6.66;7.19;-0.03;4.937;-50.625;-64;;;-3.875;48.438;144.437
48979;2.85;13.42;2.19;-1.207558403;2.002765317;1.088649121;2.14;10.48;-4.54;2.438;11.875;-58.125;;;-69.188;62.375;114.75
49028;1.52;10.57;2.51;-1.768245425;2.107485072;0.905389549;0.68;9.47;1.35;-1.125;-61.625;-52.75;;;-101.313;51.875;120.75
49079;1.78;9.54;2.18;-2.167489491;1.923143396;0.722129978;0.53;9.42;0.93;-10.625;-70.063;-39.188;;;-124.188;41.375;110.188
49130;1.24;6.77;2.37;-2.469640892;1.605702912;0.394880743;2.64;9.46;-2.3;3.875;-110.875;-48.625;;;-141.5;22.625;92
49179;0.38;5.18;1.53;-1.983130363;0.845402583;-0.13416346;2.98;9.01;-1.9;4.687;-46.125;-46.188;;;-113.625;-7.687;48.438
49228;-1.51;4.84;0.74;-0.866119641;-0.221447375;-0.184359129;2.02;9.28;0.23;10.25;-16.875;-46.375;;;-49.625;-10.563;-12.688
49279;-1.3;4.17;-2.18;0.72977452;-0.977384381;-0.217084052;1.05;9.99;-0.02;12.313;-30.25;-51.375;;;41.813;-12.438;-56
49330;3.89;14.35;-7.28;0.167987941;-1.982048258;-0.472321002;0.8;10.59;-1.31;13.25;-37.75;-37;;;9.625;-27.062;-113.563
49379;3.73;14.43;-8.02;-0.452686048;-0.563968241;0.3021514;1.25;11.39;-2.59;15.375;-43.875;-17.437;;;-25.937;17.312;-32.313
49428;-1.57;8.58;-1.42;-0.153815867;0.001082104;0.274889357;0.04;11.57;-2.51;6.187;-30.312;11.688;;;-8.813;15.75;0.062
49479;6.11;13.06;-6.44;-1.432269544;-0.644689719;0.305432619;-2.71;11.87;0.63;-3;-4.562;50;;;-82.063;17.5;-36.938
49530;-3.65;9.42;3.11;1.720248871;-0.927206165;0.569413668;-1.93;11.29;1.79;3.25;-33.875;170.687;;;98.563;32.625;-53.125
49579;6.04;10.55;4.11;0.498500941;-1.127919029;0.021816616;5.45;15.1;-1.11;-73.5;-65.438;133.812;;;28.562;1.25;-64.625
49628;2.66;9.97;2.38;-0.071994832;-1.168288495;-0.195267437;3.02;13.01;-0.05;-75.875;55.875;125;;;-4.125;-11.188;-66.938
49679;-0.42;9.57;0.93;1.838058595;-1.340639758;0.029443704;2.36;11.09;-2.25;-74.25;93.75;126.5;;;105.313;1.687;-76.813
49729;2.96;9.2;1.46;2.646355478;-1.078840371;-0.086166905;2.99;7.68;-0.9;-66;159.437;102.688;;;151.625;-4.937;-61.813
49778;3.87;9.16;1.24;1.485711526;-0.928305723;-0.25089108;3.94;4.73;0.27;-22.437;198.125;67.438;;;85.125;-14.375;-53.188
49829;2.6;8.97;0.99;0.424324448;-0.929387827;-0.298887634;2.32;4.81;3.14;-2.688;141.187;7.5;;;24.312;-17.125;-53.25
49880;1.82;8.83;1.05;0.645771823;-0.992656012;-0.382872878;-0.8;5.36;1.91;-24.375;-20.937;-49.563;;;37;-21.937;-56.875
49929;1.68;8.99;1.42;0.402507832;-1.013390524;-0.415597801;-4.05;10.78;-0.03;-3.438;-35.5;-66.688;;;23.062;-23.812;-58.063
49979;3.76;9.33;1.38;0.59995693;-0.68286007;-0.295606415;-9.63;14.78;-3.24;18;69.5;-11;;;34.375;-16.937;-39.125
50029;1.68;10.34;3.03;0.664324673;-0.430869432;0.005445427;-3.19;8.32;0.87;2.25;-58.938;-23.937;;;38.063;0.312;-24.687
50080;3.55;12.62;0.49;0.698131701;-0.011990412;0.095993109;3.06;6.87;2.42;-1;-3.625;-74.25;;;40;5.5;-0.687
50129;2.73;12.86;-0.45;0.392699082;0.694867935;0.182177467;-2.12;15.55;-3.76;2.688;53.313;-112.75;;;22.5;10.438;39.813
50179;-0.22;11.75;-1.53;-0.296705973;2.104221306;0.230174022;0.75;10.65;-1.17;-32;-120.313;-77.063;;;-17;13.188;120.563
50229;1.76;11.04;2.96;-0.133081355;2.703078679;0.746128255;3.04;8.47;-0.51;12.063;8.375;-55.25;;;-7.625;42.75;154.875
50280;2.83;14.13;2.63;-0.654498469;2.073678044;1.125737368;3.07;9.44;-4;-8.875;-67.875;-54.625;;;-37.5;64.5;118.813
50329;3.68;11.55;3.19;-1.521717668;2.166389934;0.944659458;1.23;9.89;-0.22;3.125;-27.187;-62.375;;;-87.188;54.125;124.125
50379;2.57;10.48;1.93;-2.5372724;1.970040393;0.824668072;-0.47;9.28;0.32;-8.5;-66.938;-39.313;;;-145.375;47.25;112.875
50429;1.95;6.68;1.79;-2.517637446;1.702795578;0.496319279;2.72;9.38;-1.93;0.937;-96.063;-50.5;;;-144.25;28.437;97.563
50480;-1.49;5.6;0.63;-1.874047284;0.820304748;0.003263766;2.13;9.52;-0.77;3.563;-47.375;-42.313;;;-107.375;0.187;47
50529;-1.42;4.82;0.54;-0.503963822;-0.031625366;-0.014172074;2.81;8.94;-0.21;5.125;-40.938;-44.125;;;-28.875;-0.812;-1.812
50579;-0.85;3.93;-0.9;0.453785606;-0.652316808;-0.154897971;1.89;9.35;-0.96;7.937;-27.937;-41.125;;;26;-8.875;-37.375
50629;3.32;8.22;-4.68;0.465776017;-1.535889742;-0.551960376;2.03;10.18;-0.74;13.063;-33.75;-48.25;;;26.687;-31.625;-88
50680;6.1;14.78;-9.17;-0.619591884;-0.99375557;0.107983521;1.43;10.82;-1.51;18.562;-38.188;-31.437;;;-35.5;6.187;-56.938
50729;-0.48;9.77;-2.94;-0.633781411;-0.245445653;0.268344372;2.01;10.34;-2.14;13.813;-51.938;-13.875;;;-36.313;15.375;-14.063
50779;1.38;10.06;-3.9;-0.313059708;-0.776671517;0.197449098;-0.32;11.42;-2.05;8.438;-8.75;1.062;;;-17.937;11.313;-44.5
50829;-4.75;0.72;7.57;0.699231258;-0.236719006;0.97520272;-2.45;11.75;2.12;-1.312;-3.875;67.625;;;40.063;55.875;-13.563
50879;6.8;12.9;3.86;1.070113724;-0.965393969;-0.002181662;0.65;11.17;0.29;6.187;-23.062;154.75;;;61.313;-0.125;-55.313
50929;1.69;8.94;2.84;-0.042551127;-1.327549789;-0.061086524;4.67;13.5;-0.53;-53.563;-67.938;132.937;;;-2.438;-3.5;-76.063
50979;1.14;9.08;0.91;0.48322931;-1.317723585;-0.032724923;3.64;12.11;-1.17;-68;47.813;121.25;;;27.687;-1.875;-75.5
51029;-0.12;9.66;0.94;1.836959038;-1.292643204;0.007627089;3.46;11.61;-1.87;-61.688;109.063;135.187;;;105.25;0.437;-74.063
51079;2.79;8.72;1.98;2.154399522;-1.024298831;-0.103620198;2.77;8.43;-1.85;-60.875;140.437;117.875;;;123.438;-5.937;-58.688
51129;2.78;9.13;1.64;1.323186466;-0.923942399;-0.236719006;3.5;6.33;0.29;-25.437;183.312;89.625;;;75.813;-13.563;-52.938
51179;2.33;9.03;1.51;0.955567765;-0.959931089;-0.311977604;1.17;4.55;2.99;-8.813;121.188;39.563;;;54.75;-17.875;-55
51229;1.69;9.11;1.18;0.883572934;-0.855211333;-0.256353961;-0.72;5.08;1.66;-14.313;-26.562;-18.125;;;50.625;-14.688;-49
51279;3.12;8.76;1.75;0.823585967;-0.695950039;-0.211621172;-3.32;7.89;-1.73;-1.25;-23;-47.813;;;47.188;-12.125;-39.875
51329;2.57;9.47;2.21;0.854129229;-0.674133424;-0.147270882;-8.99;14.29;-4.06;-1.437;48.125;-70.313;;;48.938;-8.438;-38.625
51379;2.56;10.82;1.69;0.635963073;-0.154897971;-0.021816616;-4.52;10.6;0.71;12.375;22.875;-22.75;;;36.438;-1.25;-8.875
51429;3.52;11.26;0.45;0.686141289;0.058904862;0.049096112;4.08;7.66;4.9;-14.063;22.687;-55.563;;;39.313;2.813;3.375
51479;0.93;13.11;-1.05;0.15271631;0.913034092;0.233437787;-4.22;17.55;-1.15;10.313;16.5;-147.437;;;8.75;13.375;52.313
51529;1.81;11.52;-0.25;0.200712864;2.505629581;0.304333062;3.83;7.09;-1.53;-26.437;-97.5;-44.5;;;11.5;17.437;143.562
51578;2.16;11.1;3.8;-0.151634205;2.282017997;1.25991828;3.17;9.63;-4.83;6.812;-27.25;-75.75;;;-8.688;72.188;130.75
51630;2.35;13.66;2.79;-1.406089605;1.883873488;1.262099942;2.39;10;-2.2;-8;-15.5;-61.188;;;-80.563;72.313;107.938
51679;1.9;11.52;2.23;-2.278736778;2.061670179;0.91085243;0.31;9.86;1.83;-0.125;-31.187;-54.375;;;-130.562;52.188;118.125
51729;2.19;9.01;2.01;-2.196933196;1.845685684;1.017753847;2.65;8.82;-0.17;-14.188;-129.187;-38.625;;;-125.875;58.313;105.75
51778;0.91;6.4;2.12;-2.540536166;1.446441618;0.424324448;2.71;9.43;-2.86;-1.062;-113.375;-52.188;;;-145.562;24.312;82.875
51830;-0.77;5.04;1.65;-2.268928028;0.56178658;-0.030543262;2.55;9.14;-0.48;1.75;-54.938;-46.063;;;-130;-1.75;32.188
51879;-1.96;4.32;-0.19;-0.785398163;-0.197449098;-0.0283616;1.64;9.63;-0.22;6.062;-44;-47.625;;;-45;-1.625;-11.313
51929;-0.03;5.24;-3.9;0.185441233;-0.661043454;-0.442877298;1.11;9.46;-0.58;11;-40.688;-50.688;;;10.625;-25.375;-37.875
51978;4.26;14.23;-6.52;0.014172074;-1.360274712;-0.260717284;1.43;10.16;-1.7;15.313;-36.938;-42.188;;;0.812;-14.938;-77.938
52030;2.78;9.99;-5.66;-0.100356432;-0.249808976;0.261799388;1.9;11.03;-1.81;16.25;-42.813;-23.125;;;-5.75;15;-14.313
52079;-0.59;11.81;-2.11;-0.929387827;-0.451603944;0.071994832;1.57;13.16;-3.07;12.75;-35.313;-9.813;;;-53.25;4.125;-25.875
52129;5.15;12.65;-5.97;-1.026480493;-0.677414643;0.315241369;-1.57;13.53;0.42;0.25;-14.75;38.125;;;-58.813;18.062;-38.813
52178;-3.42;6.37;1.6;1.17155226;-0.821404306;0.545415391;-2.63;11.17;3.46;1.687;-23.687;119.813;;;67.125;31.25;-47.063
52229;7.79;11.1;4.05;1.698432255;-1.274090354;0.344702527;5.76;13.04;-1.86;-42.188;-98.438;142.25;;;97.313;19.75;-73
52279;4.45;9.18;2.75;-0.442877298;-1.245728754;-0.176714587;3.84;13.38;-1.1;-62.375;21.875;120.063;;;-25.375;-10.125;-71.375
52329;-0.4;9.14;0.58;0.710139566;-1.374446786;-0.045814893;2.98;13.03;-0.54;-63.563;91.375;123.75;;;40.688;-2.625;-78.75
52379;1.4;9.33;1.25;2.602722247;-1.354811832;0.052359878;2.84;9.61;-1.56;-63.75;131.062;120;;;149.125;3;-77.625
52429;3.82;9.1;1.88;1.997319889;-1.055924197;-0.197449098;3.18;7.42;-1.11;-40.313;179.625;89.25;;;114.438;-11.313;-60.5
52479;3.21;9.36;1.24;0.870482964;-0.989392246;-0.294524311;3.01;5.85;1.84;-4.625;172.687;51.375;;;49.875;-16.875;-56.688
52529;1.17;8.91;1.46;0.938114473;-1.036289243;-0.380691216;0.75;4.01;3.03;-23;2.063;11.375;;;53.75;-21.812;-59.375
52578;2.32;9.42;0.45;0.790861044;-0.873764183;-0.365419585;-1.78;5.81;-0.43;-12.125;-37.625;-42.375;;;45.313;-20.937;-50.063
52629;3.74;9.15;1.64;0.375245789;-0.72431164;-0.230174022;-4.04;9.92;-1.61;15.75;49.75;-59.063;;;21.5;-13.188;-41.5
52679;2.07;8.94;2.28;0.416697359;-0.625054765;-0.081803582;-8.77;14.71;-0.58;0.812;30.25;-32.438;;;23.875;-4.687;-35.813
52728;1.62;10.82;2.93;1.065750401;-0.25089108;-0.030543262;-2.28;5.98;2.36;-5.125;8.875;-24.375;;;61.063;-1.75;-14.375
52778;4.36;12.83;0.91;0.845402583;-0.051277773;-0.09271189;4.89;9.9;3.04;9.625;-47.063;-119.75;;;48.438;-5.312;-2.938
52829;1.58;14.16;-0.91;0.323968016;1.084285798;0.155997529;-6.28;16.03;-0.79;-11.375;73.25;-61;;;18.562;8.938;62.125
52878;0.64;11.14;0.01;-0.109083078;2.767428969;0.160360852;5.78;6.52;-0.77;-25.375;-92.438;-52.5;;;-6.25;9.188;158.562
52928;2.99;12.66;3.91;0.080721478;2.374729887;1.129018587;2.07;9.85;-4.4;6.625;7.437;-65.25;;;4.625;64.688;136.062
52978;2.29;13.22;2.6;-1.391900078;2.186024888;1.06356874;2.26;9.3;-2.5;-12.75;-55.313;-60.625;;;-79.75;60.938;125.25
53029;1.85;11.81;2.51;-1.987493686;2.166389934;0.890117919;0.11;10.03;0.91;-7.187;-13.688;-52.313;;;-113.875;51;124.125
53080;2.84;9.46;2.39;-2.295107966;1.862056872;0.734137843;1.82;8.49;0.49;-9.688;-117.813;-44.5;;;-131.5;42.063;106.688
53128;0.96;6.38;2.16;-2.554725693;1.601339589;0.393781186;2.17;9.76;-2.36;-1.875;-80.313;-41.875;;;-146.375;22.562;91.75
53180;-0.74;4.77;0.82;-1.785698718;0.699231258;0.106901417;2.62;8.98;-1.36;1.687;-38.75;-40.75;;;-102.313;6.125;40.063
53229;-1.74;3.94;-0.89;-0.507227587;-0.351247512;0.06000442;2.85;9.25;0.89;4.937;-33.688;-44;;;-29.062;3.438;-20.125
53280;-0.95;5.56;-3.74;0.350147955;-0.99375557;-0.426506109;2.69;10.12;-0.62;10.563;-47.875;-52.375;;;20.062;-24.437;-56.938
53328;4.06;13.25;-6.32;-0.065449847;-1.601339589;-0.183259571;0.36;10.12;-1.82;11.375;-48.75;-37.375;;;-3.75;-10.5;-91.75
53380;3.91;11.05;-6.15;-0.86393798;-0.22252948;0.18107791;2.57;11.23;-2.23;14.875;-58.75;-21.875;;;-49.5;10.375;-12.75
53429;0.94;10.52;-2.78;-0.941395692;-0.357792497;0.395962847;1.27;12.48;-2.76;11.125;-41.313;-11.688;;;-53.938;22.687;-20.5
53480;3.5;12.66;-7.13;-1.018835951;-0.978483939;0.354511278;-1.44;12.75;-0.51;5.125;-16.062;14.313;;;-58.375;20.312;-56.063
53528;-5.72;4.42;3.2;0.485410972;-1.060287521;0.817040983;-2.59;11.76;2.59;-4.062;-20.062;106.563;;;27.812;46.813;-60.75
53579;5.6;11.06;4.6;1.787880379;-1.198831757;0.405789051;4.76;12.2;-2.07;-19.375;-68.438;167.437;;;102.438;23.25;-68.688
53628;4.25;10.24;2.29;0.006544985;-1.35263017;-0.141808002;4.1;13.58;-1.3;-67;-8.313;117.438;;;0.375;-8.125;-77.5
53680;0.01;9.03;0.71;0.790861044;-1.42244334;-0.063268185;3.36;13.15;-0.51;-74;105.813;120.25;;;45.313;-3.625;-81.5
53729;2.31;9.66;0.79;2.195851092;-1.317723585;-0.018535397;3.47;10.49;-1.52;-63.625;164.187;129.375;;;125.813;-1.062;-75.5
53779;3.26;9.06;1.57;1.788962483;-1.126836925;-0.187622895;3.06;7.02;0.59;-41.688;184.937;108.813;;;102.5;-10.75;-64.563
53828;2.21;9.2;0.68;1.225011695;-1.011208862;-0.243263991;2.91;4.88;2.39;-7.812;160.375;67.688;;;70.188;-13.938;-57.938
53880;2.09;9.02;1.17;0.909752873;-0.907571211;-0.370882466;1.38;3.74;2.34;-12.063;38.063;16.5;;;52.125;-21.25;-52
53929;2.57;9.71;1.52;0.826849733;-0.851947568;-0.316340927;-2.11;6.18;-0.39;-10.5;-56;-39.25;;;47.375;-18.125;-48.813
53979;3.21;8.97;1.23;0.303250958;-0.762499444;-0.124354709;-7.28;12.65;-2;13.563;37.125;-72.438;;;17.375;-7.125;-43.688
54028;3.14;9.81;2.16;0.575958653;-0.57159533;0.019634954;-9.48;15.79;0.05;-1.562;28.437;-28.687;;;33;1.125;-32.75
54079;0.92;10.95;1.74;0.845402583;-0.094893551;0.11126474;0.85;4.15;3.65;-15;-3;-19.937;;;48.438;6.375;-5.437
54129;3.21;11.8;-0.53;0.84103926;0.37196457;0.047996554;2.8;11.84;-0.6;9.563;-46.25;-116.938;;;48.188;2.75;21.312
54178;1.41;12.65;-0.07;0.106901417;1.852230669;0.122173048;-1.18;11.63;0.19;-14.063;18.625;-62.875;;;6.125;7;106.125
54228;2.45;10.86;2.99;-0.220347818;2.724895295;0.41341614;7.56;7.14;-0.58;-12.75;-81.375;-57.313;;;-12.625;23.687;156.125
54279;2.37;14.56;2.84;-0.514872129;2.062769736;1.263182046;1.95;10.63;-5.08;15.063;23;-70.938;;;-29.5;72.375;118.188
54329;2.92;11.84;3.28;-1.594794604;2.181661565;0.966476073;1.43;9.2;1.3;-9;-45.688;-56.125;;;-91.375;55.375;125
54378;2.96;10.47;1.9;-2.006046536;2.055125194;0.652316808;-1.17;9.74;1.19;-11.313;-45.875;-41.563;;;-114.938;37.375;117.75
54429;0.66;7.72;1.74;-2.306016274;1.707158901;0.671951762;3.21;9.22;-2.89;2.5;-125.375;-53;;;-132.125;38.5;97.813
54479;0.51;5.8;1.34;-2.107485072;1.306815277;0.15271631;2.02;9.44;-2.53;-0.062;-46.75;-42.813;;;-120.75;8.75;74.875
54528;-0.87;4.73;0.72;-1.576259207;0.495237175;-0.127618475;1.5;9.1;0.3;9.313;-28.375;-46.75;;;-90.313;-7.312;28.375
54578;-1.8;3.23;-1.35;0.00980875;-0.27925268;-0.142907559;2.23;9.54;-0.14;10.688;-32.25;-46.063;;;0.562;-8.188;-16
54630;2.54;5.43;-4.36;0.697049597;-1.35263017;-0.41887902;1.42;9.46;-1.42;11.438;-34.438;-43.938;;;39.938;-24;-77.5
54679;6.12;17.45;-8.67;-0.470139341;-1.742065486;-0.380691216;1.3;10.95;-1.19;10.25;-48.313;-29.812;;;-26.937;-21.812;-99.813
54729;-0.06;10.21;-4.28;-0.534507083;-0.22252948;0.368700804;2.08;10.37;-2.19;15.5;-51.063;-10.938;;;-30.625;21.125;-12.75
54778;2.12;9.45;-4.47;-0.083985244;-0.042551127;0.165806279;-0.46;12.01;-2.2;6.187;-19.25;-1.875;;;-4.812;9.5;-2.438
54830;-3.24;0.15;12.71;-0.494137618;0.234537345;1.019935508;-2.03;12.35;2.32;-1.687;-14.625;78.25;;;-28.312;58.438;13.438
54879;0.59;11.81;2.62;1.592612942;-1.235920003;0.198531202;0.5;10.46;0.76;-1.875;-46.625;171.625;;;91.25;11.375;-70.813
54929;4.22;9.11;2.99;-0.0283616;-1.35263017;-0.073076936;5.01;14.45;-1.41;-75.438;-66.688;116.938;;;-1.625;-4.187;-77.5
54978;0.72;9.07;1.83;-0.130899694;-1.491174406;-0.103620198;2.77;11.69;-0.18;-63.813;74.625;123.75;;;-7.5;-5.937;-85.438
55029;-0.72;9.77;1.13;2.166389934;-1.586067958;0.127618475;2.95;11.84;-1.21;-61.5;108.188;125.625;;;124.125;7.312;-90.875
55078;2.56;8.5;2.17;2.400909826;-1.249009973;-0.07962192;3.08;8.09;-0.96;-54.375;151.5;104.625;;;137.562;-4.562;-71.563
55129;3.44;8.97;1.49;1.49225651;-1.012290966;-0.273807253;3.49;6.03;0.75;-16.187;176.687;78.875;;;85.5;-15.688;-58
55178;2.46;8.89;1.31;0.843220922;-0.957749427;-0.351247512;2.18;4.97;2.5;-11.375;105.813;35.313;;;48.313;-20.125;-54.875
55230;1.7;9.54;0.89;0.445058959;-0.901026226;-0.351247512;-1.07;4.99;0.45;-23.625;-32.688;-19.562;;;25.5;-20.125;-51.625
55278;2.54;9.44;1.79;0.626136869;-0.958848984;-0.195267437;-4.82;8.94;-0.98;-2.813;-14;-70.563;;;35.875;-11.188;-54.938
55329;4.01;9.45;2.75;0.628318531;-0.579239872;-0.09817477;-8.59;14.9;-2.89;3.063;44.438;-55.375;;;36;-5.625;-33.188
55378;0.95;11.01;2.82;0.625054765;-0.265080607;0.167987941;-3.57;8.5;-0.52;-13.375;7.312;-7.5;;;35.813;9.625;-15.188
55429;3.01;11.45;1.21;0.894481242;0.200712864;0.162542513;3.83;9.6;3.88;-3.25;-28.125;-105.063;;;51.25;9.313;11.5
55478;2.75;11.82;-0.81;0.603238149;0.70141292;0.179995806;-6.85;18.86;-1.83;21.125;109.938;-98.688;;;34.563;10.313;40.188
55528;-0.14;11.6;-1.79;-0.15271631;2.646355478;0.078539816;5.06;5.1;-0.14;-25;-72.063;-30.812;;;-8.75;4.5;151.625
55578;3.08;12.09;4.08;0.410152374;2.683443725;1.095194106;2.59;9.81;-4.24;9.75;-33.938;-65.75;;;23.5;62.75;153.75
55629;3.64;13.77;3.06;-0.845402583;2.202396077;1.220648372;3.35;9.64;-1.68;-3.25;-25.5;-63.438;;;-48.438;69.938;126.188
55679;1.55;11.19;2.7;-2.148936642;2.18820655;1.015572185;-1.65;10.51;0.28;-9.625;-11.688;-42.875;;;-123.125;58.188;125.375
55728;1.71;9.81;1.73;-1.99403867;1.81624198;0.809396441;1.82;9.11;0.06;-6.875;-133.5;-37.188;;;-114.25;46.375;104.063
55778;1.69;7.21;2.37;-2.351831167;1.334094774;0.544315834;2.75;9.58;-2.77;-6.062;-87.875;-40;;;-134.75;31.187;76.438
55829;-0.95;4.33;1.74;-2.030044813;0.546497495;-0.06981317;2.1;9.09;-1.06;2.625;-31.187;-32.313;;;-116.313;-4;31.312
55878;-1.78;4.26;0.43;-0.378509555;-0.377427451;-0.055641097;2.7;9.17;0.3;8.25;-39.688;-46.125;;;-21.687;-3.188;-21.625
55928;-0.25;4.02;-2.87;0.872664626;-0.971938954;-0.389417863;1.7;9.08;-1.17;15.938;-30.5;-54.813;;;50;-22.312;-55.688
55979;5.76;18.23;-10.32;-0.434150651;-1.740965929;-0.519235452;0.66;10.19;-2.15;18.437;-33.875;-46.188;;;-24.875;-29.75;-99.75
56029;1.85;11.31;-6.94;-0.651234704;0.256353961;0.458148929;2.6;10.75;-1.96;21.187;-45.438;-29.812;;;-37.313;26.25;14.688
56078;-1.53;10.09;-2.01;-0.243263991;0.107983521;0.114528506;1.11;12.51;-2.73;13.313;-50.063;-16.125;;;-13.938;6.562;6.187
56128;5.65;13.99;-8.95;-2.721614076;-0.440695636;0.110165182;-1.2;13.22;-0.74;9.313;-30.562;23.187;;;-155.937;6.312;-25.25
56179;-5.18;5.46;4.11;1.539170961;-1.216285049;0.615228561;-2.96;11.92;4.87;-3.813;-25.937;107.5;;;88.188;35.25;-69.688
56228;6.48;10.35;4.32;2.124938364;-1.298088631;0.419961125;6.22;11.65;-2.28;-19.75;-97.938;174.125;;;121.75;24.062;-74.375
56278;6.29;9.23;3.19;-0.266162711;-1.302451954;-0.164724175;3.63;13.61;-1.26;-67.188;-19.5;119.625;;;-15.25;-9.438;-74.625
56329;0.73;9.35;1.6;0.633781411;-1.399544621;-0.005445427;2.54;11.8;0.11;-64.875;89.813;118.5;;;36.313;-0.312;-80.188
56380;0.71;8.65;1.88;2.351831167;-1.415898356;0.083985244;2.68;8.84;-1.55;-55.438;117.313;119.75;;;134.75;4.812;-81.125
56429;2.62;9.51;2.02;2.265646809;-1.167188937;-0.310878046;3.42;7.15;-0.47;-53.563;152.625;85.75;;;129.812;-17.812;-66.875
56479;3.73;9.06;1.61;1.468258233;-1.139926894;-0.424324448;2.73;5.72;0.84;-18.125;163.5;57.875;;;84.125;-24.312;-65.313
56529;2.55;9.33;0.81;0.541052068;-0.931569488;-0.438513975;0.96;4.87;1.62;-20.625;91.688;10.438;;;31;-25.125;-53.375
56580;1.72;9.33;0.17;0.547597053;-0.886854153;-0.253072742;-2.63;6.49;1.01;-14.188;22.125;-23.75;;;31.375;-14.5;-50.813
56629;3.53;8.79;1.69;0.749409474;-0.640326396;-0.176714587;-5.61;11.22;-0.53;1.375;-4.437;-44.813;;;42.938;-10.125;-36.688
56679;2.83;9.44;1.92;0.59014818;-0.549778714;-0.063268185;-8.87;14.86;-1.61;-2.063;30.562;-42.75;;;33.813;-3.625;-31.5
56730;0.7;11.67;2.37;0.713403332;-0.249808976;-0.099256875;-2.6;5.67;2.22;-6.187;27.062;-14.188;;;40.875;-5.687;-14.313
56780;4.11;12.95;0.23;0.786497721;0.149452544;0.002181662;5.99;9.33;3.01;0.062;-2.063;-95.875;;;45.063;0.125;8.563
56829;2.16;12.73;-0.5;-0.025080381;1.455168264;0.190904114;-6.24;18.64;-2.91;13.938;61.688;-111.25;;;-1.437;10.938;83.375
56879;1.52;11.48;1.14;-0.646871381;2.712887429;0.350147955;6.21;5.54;-0.17;-36.75;-88.813;-21.875;;;-37.063;20.062;155.437
56930;1.97;14.07;3.72;-0.728674963;2.199114858;1.315541924;1.61;10.82;-4.22;17.687;-19.437;-91.688;;;-41.75;75.375;126
56979;2.43;13.79;2.85;-1.721330975;2.127120026;1.11482906;1.27;9.91;-2.8;-11;-63.688;-56.625;;;-98.625;63.875;121.875
57029;1.19;11.5;2.71;-1.968958289;2.33764164;0.741764932;-0.85;9.67;1.05;-1.375;-33.25;-49.75;;;-112.813;42.5;133.937
57079;2.24;8.45;2.28;-2.064951398;1.980948701;0.731956182;2.37;8.6;-0.01;-7.937;-113.813;-38.625;;;-118.313;41.938;113.5
57130;-0.28;4.91;2.37;-2.409636472;1.534807638;0.00980875;2.15;9.16;-2.75;3.25;-82.313;-42.75;;;-138.062;0.562;87.938
57179;-0.81;4.53;1.71;-1.192286772;0.411234478;-0.231256126;2.1;9.18;-1.07;8.063;-33.813;-42.938;;;-68.313;-13.25;23.562
57229;-1.94;3.66;0.33;0.39051742;-0.705776243;-0.089448124;2.67;9.26;-0.3;11;-18.25;-44.688;;;22.375;-5.125;-40.438
57279;2.03;6.56;-3.92;0.951204442;-1.474803218;-0.529044203;0.99;8.97;-0.37;12.688;-13.938;-51;;;54.5;-30.312;-84.5
57329;10.94;22.05;-13.31;-1.157380187;-1.173733922;-0.100356432;1.62;10.35;-1.83;21.562;-32.438;-42.5;;;-66.313;-5.75;-67.25
57379;-1.07;7.12;-3.43;-0.585784857;0.51159091;0.406871155;2.73;10.43;-1.51;17.437;-43.875;-21.312;;;-33.563;23.312;29.312
57429;-0.09;10.08;-3.32;-0.680678408;0.016353735;0.171269159;-0.11;11.06;-1.61;9.75;-31.062;-12.188;;;-39;9.813;0.937
57479;-2.62;1.91;10.92;-1.078840371;0.436332313;0.99375557;-1.67;13.62;-0.42;1;-26.75;48.375;;;-61.813;56.938;25
57529;1.69;12.27;3.36;1.075559152;-0.832312614;-0.032724923;-2.69;11.12;2.41;3.813;-30.125;148.062;;;61.625;-1.875;-47.688
57579;6.77;9.44;2.85;1.233738342;-1.264281604;0.133081355;6.04;13.78;-3.02;-64.813;-90.313;128.875;;;70.688;7.625;-72.438
57629;4.05;9.27;1.78;-0.41887902;-1.370083463;-0.167987941;3.45;12.5;-0.94;-71.25;74.813;116.5;;;-24;-9.625;-78.5
57679;-1.13;9.5;1.1;1.148653541;-1.527163095;-0.064367743;2.66;12.94;0.43;-65.188;123.563;119;;;65.813;-3.688;-87.5
57729;1.19;8.42;2.01;2.572178985;-1.406089605;0.037088247;2.67;8.17;-0.08;-60.375;128.875;110.25;;;147.375;2.125;-80.563
57779;3.24;9.02;1.61;1.855511888;-1.157380187;-0.351247512;3.76;5.94;0.61;-32.563;165.437;85.75;;;106.313;-20.125;-66.313
57829;2.46;9.01;1.24;1.115928617;-1.109383632;-0.382872878;2.5;5.65;1.89;0.5;145.312;51.938;;;63.938;-21.937;-63.563
57880;2.45;9.51;0.89;0.632681854;-1.081022032;-0.462512252;0.3;4.8;1.77;-11.188;0.875;-4.687;;;36.25;-26.5;-61.938
57929;2.03;9.17;0.94;0.486510529;-0.946841119;-0.287979327;-3.99;6.95;-1.36;-4.437;-24.062;-41.938;;;27.875;-16.5;-54.25
57978;2.57;9.16;0.87;0.428687771;-0.726493301;-0.13962634;-8.36;13.66;-1.94;6.5;34.313;-61.25;;;24.562;-8;-41.625
58029;2.5;10.73;2.95;0.941395692;-0.411234478;-0.018535397;-6.88;12.89;-1.2;3.875;-13.688;-17.125;;;53.938;-1.062;-23.562
58080;2.67;11.49;0.86;0.627236427;-0.039269908;0.160360852;1.96;4.93;3.55;-10.75;7.125;-65.438;;;35.938;9.188;-2.25
58129;2.45;12.4;-0.45;0.663225116;0.40360739;0.167987941;-1.23;16.9;-1.22;19.312;78.125;-133.812;;;38;9.625;23.125
58178;1.5;12.62;-0.66;0.047996554;1.974403716;0.272707696;2.2;8.49;0.4;-35.25;-95;-65.688;;;2.75;15.625;113.125
58228;1.36;10.42;3.25;-0.488692191;2.751075233;0.559604918;6.19;6.5;-0.78;6.125;-55.125;-64.813;;;-28;32.063;157.625
58280;1.35;14.27;2.28;-0.556323699;2.252556839;1.088649121;2.12;10.42;-5.07;-9;-40.625;-62.438;;;-31.875;62.375;129.062
58329;2.85;11.97;3.28;-1.660244451;2.378011106;0.979566043;0.88;9.8;1.3;4;-25.812;-56.625;;;-95.125;56.125;136.25
58378;2.07;10.4;2.11;-1.779153733;2.354012829;0.802851456;0.23;9.03;0.27;-12.125;-51;-37.25;;;-101.938;46;134.875
58428;1.75;7.18;2.44;-2.04858021;1.843504022;0.697049597;2.87;9.27;-1.92;1.312;-104.063;-55.25;;;-117.375;39.938;105.625
58480;0.65;4.94;2.11;-2.140209995;1.329731451;0.20943951;3.11;8.97;-0.96;5.687;-47.375;-46.688;;;-122.625;12;76.188
58528;-1.08;3.82;0.89;-1.287180323;0.008726646;-0.007627089;2.37;9.47;-0.12;6.937;-31.687;-45.375;;;-73.75;-0.437;0.5
58578;-0.78;3.32;-1.52;0.090530228;-0.788679382;-0.013089969;1.78;8.7;0.15;10.625;-23.187;-48.438;;;5.187;-0.75;-45.188
58628;2.49;11.12;-6.75;0.329430896;-1.61661122;-0.334876324;1.72;10.03;-0.77;11.063;-33.063;-47.25;;;18.875;-19.187;-92.625
58680;6.82;16.79;-8.03;-1.54679805;-0.481047648;-0.02289872;2.78;11.54;-2.66;16.687;-42;-29.187;;;-88.625;-1.312;-27.562
58728;-2.93;6.54;-3.19;-0.303250958;-0.245445653;0.658861793;0.88;12.19;-1.75;9.5;-54.625;-14.563;;;-17.375;37.75;-14.063
58778;5.45;13.58;-8.01;0.150534648;-0.6697701;-0.031625366;-1.91;12.23;-1.87;4.062;-20.125;15.25;;;8.625;-1.812;-38.375
58828;-5.83;10.18;1.51;0.656680131;-1.403907944;0.942477796;-2.51;12.16;1.73;-1.062;-10.5;115.188;;;37.625;54;-80.438
58880;6.19;7.17;5.77;1.467176129;-1.141008998;0.151634205;5.7;12.31;-1.56;-21.125;-66.875;171.875;;;84.063;8.688;-65.375
58928;5.73;10.01;3.93;-0.029443704;-1.452986602;-0.182177467;4.03;14.02;-0.95;-76.188;-25.312;124.125;;;-1.687;-10.438;-83.25
58978;-1.88;8.26;0.5;0.39051742;-1.604620808;-0.194167879;3.47;12.51;-1.65;-76.938;72.25;129.812;;;22.375;-11.125;-91.938
59028;1.67;9.55;1.54;2.765247307;-1.449722837;-0.011990412;3.33;9.79;-1.93;-69;148.25;138;;;158.437;-0.687;-83.063
59080;4.45;8.82;1.71;2.28091844;-1.011208862;-0.308696385;3.61;6.61;-0.78;-45.5;191.75;112.813;;;130.687;-17.687;-57.938
59128;3.65;9.38;0.41;0.652316808;-0.913034092;-0.326149677;3.28;4.84;1.84;-12.063;207.625;65.75;;;37.375;-18.687;-52.313
59178;1.17;9.23;0.56;0.535589188;-0.930487384;-0.291243092;1;3.54;3.84;-15.188;54.188;6.062;;;30.687;-16.687;-53.313
59230;1.94;9.08;1.51;0.853029672;-0.814859321;-0.25089108;-2.43;5.25;1.06;-26.75;-92.438;-55.813;;;48.875;-14.375;-46.688
59280;3.28;8.59;1.27;0.603238149;-0.790861044;-0.244346095;-6.87;13.63;-1.55;12.438;3.813;-81.563;;;34.563;-14;-45.313
59328;4.27;9.27;3.29;0.706858347;-0.582503638;-0.080721478;-9.8;15.35;-1.61;4.375;58.813;-1.75;;;40.5;-4.625;-33.375
59378;1.32;11.98;1.63;0.63159975;-0.183259571;0.260717284;-0.96;4.51;2;-0.562;-0.562;-39.875;;;36.188;14.938;-10.5
59430;3.71;12.32;-0.97;0.761399886;0.466875575;0.185441233;3.37;13.91;-1.28;5.625;6;-134.75;;;43.625;10.625;26.75
59480;0.78;13.5;-0.29;0.02289872;1.735520502;0.261799388;0.47;11.16;-0.27;-38.063;-22.437;-43.688;;;1.312;15;99.438
59528;1.95;10.74;2.6;-0.474502664;2.864521635;0.469057236;8.13;4.75;2.73;1.062;-59.438;-68.938;;;-27.187;26.875;164.125
59579;1.88;14.74;1.91;-0.467957679;2.03549024;1.303551512;1.69;12.55;-6.7;13.063;-7;-70.563;;;-26.812;74.688;116.625
59630;3.02;10.66;3.6;-1.629701189;2.170753257;1.174833479;0.41;9.8;0.57;-4.875;-72.563;-54.5;;;-93.375;67.313;124.375
59680;1.84;11.09;2.49;-2.343104521;2.062769736;0.715584993;-1.09;9.22;0.8;-17.687;-42.563;-37;;;-134.25;41;118.188
59728;0.86;8.05;2.42;-2.525264535;1.77479041;0.859574657;2.84;8.87;-2.17;5;-109.438;-52.125;;;-144.687;49.25;101.688
59779;-0.29;4.29;1.63;-1.898045562;1.187923449;0.145089221;1.78;9.37;-2.25;2.813;-31.062;-43.5;;;-108.75;8.313;68.063
59830;-1.69;3.68;1.05;-1.281734896;0.093811447;-0.162542513;2.44;9.11;0.54;11.813;-26.5;-52.688;;;-73.438;-9.313;5.375
59880;-2.15;3.64;-1.02;0.458148929;-0.59995693;-0.178896248;2.52;8.76;0.34;11.125;-26.187;-53.25;;;26.25;-10.25;-34.375
59929;3.76;9.07;-5.44;1.074477047;-1.391900078;-0.665406777;1.16;10.07;-1.35;14.625;-44.625;-53.063;;;61.563;-38.125;-79.75
59979;6.86;16.93;-9.36;-1.024298831;-1.085385355;-0.25089108;1.33;11.09;-2.53;17.687;-51.875;-42.875;;;-58.688;-14.375;-62.188
60030;-2.79;9.36;-2.3;-0.206175745;-0.082903139;0.558505361;0.87;13.2;-2.74;12.563;-46.25;-13.875;;;-11.813;32;-4.75
60080;6.3;11.54;-4.52;0.356692939;-0.41341614;0.200712864;-1.44;11.96;-1.27;-1.437;-36.188;29;;;20.437;11.5;-23.687
60129;-3.55;5.75;7.38;-0.623955208;0.071994832;1.038470905;-2.35;11.97;2.97;0.437;-14.5;128.437;;;-35.75;59.5;4.125
60179;3.28;9.61;3.24;0.299969739;-1.144290217;-0.00980875;5.22;10.7;-0.66;-17.625;-97.313;178.562;;;17.187;-0.562;-65.563
60230;5.34;9.98;2.99;0.346884189;-1.062469182;0.055641097;4.13;14;-2.06;-80.625;-44.375;129.687;;;19.875;3.188;-60.875
60279;0.14;10.07;0.99;0.104719755;-1.376628448;-0.087266463;3.34;13.34;-2.04;-78.25;105.188;127.625;;;6;-5;-78.875
60328;0.38;10.03;1.4;2.378011106;-1.543534284;0.018535397;2.86;10.27;-2.2;-67.688;163.25;123;;;136.25;1.062;-88.438
60380;3.38;8.5;2.42;2.667072537;-1.177015141;-0.135263017;3.33;6.02;-0.14;-48.75;176.25;85;;;152.812;-7.75;-67.438
60430;3.28;9.19;1.58;1.518436449;-0.994837674;-0.365419585;3.16;4.95;2.14;-12.438;188.25;44.313;;;87;-20.937;-57
60479;2.01;9.14;1.36;0.890117919;-0.946841119;-0.409052817;1.73;4.27;1.53;-17.812;64.5;-3.313;;;51;-23.437;-54.25
60528;2.45;9.71;-0.01;0.616328119;-1.028662155;-0.363237924;-1.75;5.03;0.97;-22.5;-37.375;-57.375;;;35.313;-20.812;-58.938
60580;3.65;8.58;0.43;0.465776017;-0.675232981;-0.119991386;-7.52;14.09;-0.57;17.812;10.25;-83.375;;;26.687;-6.875;-38.688
60630;3.92;9.34;2.96;0.569413668;-0.59014818;-0.087266463;-8.64;16.37;0.64;0.75;-5.875;-12.063;;;32.625;-5;-33.813
60679;1.3;10.72;2.49;0.505045926;-0.368700804;0.02289872;-0.1;4.2;3.61;-16.625;-25.812;-42.063;;;28.937;1.312;-21.125
60728;3.8;11.5;-0.05;0.584685299;0.099256875;0.034906585;2.76;13.73;-1.73;27.5;66.625;-132.75;;;33.5;2;5.687
60780;-0.22;13.34;-1.53;-0.112346844;1.652617362;0.297788077;3.17;7.2;-0.21;-39.625;-99.313;-63.563;;;-6.437;17.062;94.688
60830;1.79;10.06;2.52;-0.089448124;2.836160034;0.221447375;5.83;6.75;-0.26;4.937;-56.438;-75.25;;;-5.125;12.688;162.5
60879;4.02;14.85;3.19;0.201812421;2.154399522;1.221730476;2;10.85;-4.78;1.562;3.813;-58.688;;;11.563;70;123.438
60927;2.7;12.15;3.62;-2.024581932;1.992956566;1.02211717;1.36;9.57;0.19;-5.625;-55.188;-52.313;;;-116;58.563;114.188
60980;2.04;11.36;2.28;-2.572178985;2.059488517;0.635963073;-0.06;9.12;0.6;-11.625;-67.063;-35.313;;;-147.375;36.438;118
61030;2.02;8.41;1.65;-1.793325806;1.879510165;0.668687996;2.76;9.43;-2.42;2.063;-90.563;-50.75;;;-102.75;38.313;107.688
61079;0.6;5.61;1.49;-1.879510165;1.379909667;0.342520866;1.71;9.07;-1.84;-2.625;-46.563;-43.438;;;-107.688;19.625;79.063
61129;-1.27;4.82;1;-1.58062253;0.574876549;-0.036006142;2.09;9.22;-0.32;6.375;-37.5;-45.375;;;-90.563;-2.063;32.938
61180;-1.96;3.93;-0.9;0.091629786;-0.428687771;-0.062186081;2.89;9.51;-0.35;11.188;-25.625;-47.188;;;5.25;-3.563;-24.562
61230;2.61;6.12;-3.86;0.657779688;-1.163925172;-0.545415391;1.69;9.17;-0.4;10.875;-26.875;-44.625;;;37.688;-31.25;-66.688
61279;7.62;19.44;-10.16;-0.638144734;-1.952587101;-0.535589188;2.25;10.17;-1.48;18.5;-38.25;-47.25;;;-36.563;-30.687;-111.875
61329;2.19;8.09;-3.8;-0.107983521;-0.078539816;0.775589413;2.14;10.87;-2.99;23.625;-34.313;-33.188;;;-6.187;44.438;-4.5
61380;-2.32;9.09;-1.27;-0.887936257;-0.439596079;0.245445653;-1.56;12.09;0.18;9.313;-15.75;-6.625;;;-50.875;14.063;-25.187
61430;0.72;12.43;-3.29;-1.620974543;-0.196349541;0.353429174;-2.2;12.77;1.3;0.062;-44.375;65.5;;;-92.875;20.25;-11.25
61478;-0.66;6.7;5.35;1.105020309;-0.84103926;0.538870407;-0.77;10.74;1.33;6.312;-36.625;183.625;;;63.313;30.875;-48.188
61529;5.18;10.48;3.31;0.798488133;-1.134464014;0.183259571;4.92;15.17;-1.78;-66.563;-73.5;136.5;;;45.75;10.5;-65
61580;-0.59;8.98;0.57;-0.448322725;-1.242464988;-0.226892803;3.79;12.26;-1.36;-63.438;67.375;128.687;;;-25.687;-13;-71.188
61630;1.2;9.45;1.59;2.023499828;-1.358093051;0.110165182;2.92;12.18;0.51;-56.563;141.562;137.312;;;115.938;6.312;-77.813
61678;1.83;9.12;2.06;2.24492975;-1.18464223;-0.151634205;3.11;8.05;-2.3;-52.938;139.75;124.313;;;128.625;-8.688;-67.875
61728;2.87;9.12;0.79;1.821687407;-1.060287521;-0.253072742;3.67;5.58;0.17;-21;184.562;87;;;104.375;-14.5;-60.75
61780;2.9;8.71;1.66;1.385355094;-1.064650844;-0.339239647;1.92;3.99;2.26;-5.625;112.063;35.938;;;79.375;-19.437;-61
61830;2.49;9.58;0.73;0.899944122;-1.055924197;-0.498500941;0.28;4.23;1.96;-21.562;-10.563;-23.125;;;51.563;-28.562;-60.5
61878;3.05;9.12;1.32;0.687223393;-0.833394718;-0.311977604;-3.72;8.19;-0.83;-5.187;-32.875;-71.313;;;39.375;-17.875;-47.75
61930;2.99;9.05;2.35;0.548679157;-0.698131701;-0.221447375;-10.43;16;-2.56;-0.812;59.625;-57.375;;;31.437;-12.688;-40
61980;2.1;11.2;1.92;0.733038286;-0.346884189;-0.042551127;-5.01;9.04;0.41;-9.125;-43.25;-19.812;;;42;-2.438;-19.875
62029;3.94;12.51;0.43;0.675232981;0.025080381;0.078539816;6.17;8.21;0.82;-7.437;-9.125;-76.313;;;38.688;4.5;1.437
62078;0.91;14.06;-0.78;0.329430896;0.976302277;0.266162711;-5.89;18.25;-1.63;11.188;100.375;-102.25;;;18.875;15.25;55.938
62130;1.14;11.19;0.38;0.049096112;2.640892598;0.183259571;7.02;5.97;1.83;-26;-83.5;-48.813;;;2.813;10.5;151.312
62180;2.45;13.8;3.82;0.308696385;2.501266258;1.174833479;1.55;10.89;-4.33;13.375;9.688;-75.188;;;17.687;67.313;143.312
62229;2.51;12.82;3.03;-1.495537729;2.091131337;1.186823891;1.37;9.88;-3.13;-14.375;-66.125;-59.938;;;-85.688;68;119.813
62277;2.47;11.38;2.83;-2.112947952;2.199114858;0.916297857;-0.35;9.87;1.18;-2.313;-26.437;-53.938;;;-121.063;52.5;126
